timestamp,pdop,hdop,vdop,lati,longi,gps_speed,gps_mode,gps_fix_type,gps_fix_quality,gps_sats_tracked,gps_alt,gps_height,accel_x_g,accel_y_g,accel_z_g,gyro_x_dps,gyro_y_dps,gyro_z_dps,pressure_pa,tc_temp_C,cjc_temp_C,oc_sc_flags,batt_voltage_V,batt_current_mA,baro_calculated_altitude_m,accel_magnitude_less_gravity_g
0.0,0,0,0,-43.81921,172.655654,0.0,A,3,1,12,13.9,10.0,0.037,1.0,-0.163,0.2,-5.7,0.7,101437,27.0,28.2,0,4.14,50.3,0.25810795302444456,0.013872773083487111
0.064,0,0,0,-43.81921,172.655654,0.0,A,3,1,12,13.9,10.0,-0.089,0.99,-0.081,-1.1,-15.4,-2.5,101437,27.5,28.2,0,4.15,41.0,0.25810795302444456,-0.002712679314531785
0.104,0,0,0,-43.81921,172.655654,0.0,A,3,1,12,13.9,10.0,-0.096,0.997,-0.11,-2.0,-0.4,-2.1,101437,27.5,27.9,0,4.14,42.9,0.25810795302444456,0.007633365862802277
0.153,0,0,0,-43.81921,172.655654,0.0,A,3,1,12,13.9,10.0,-0.091,0.985,-0.123,-1.6,-4.8,0.6,101437,27.2,28.1,0,4.15,42.4,0.25810795302444456,-0.0031875803341935294
0.203,0,0,0,-43.81921,172.655654,0.0,A,3,1,12,13.9,10.0,-0.081,0.993,-0.094,-1.8,-3.3,2.4,101437,27.5,28.1,0,4.11,74.5,0.25810795302444456,0.0007227388242958543
0.253,0,0,0,-43.81921,172.655654,0.0,A,3,1,12,13.9,10.0,-0.05,0.996,-0.085,-1.8,6.6,1.9,101441,27.5,28.1,0,4.11,73.1,-0.08603461079542087,0.0008701214443360694
0.303,0,0,0,-43.81921,172.655654,0.0,A,3,1,12,13.9,10.0,-0.032,1.0,-0.093,-0.9,4.0,1.2,101441,27.0,28.1,0,4.14,45.2,-0.08603461079542087,0.004824860361247074
0.353,0,0,0,-43.81921,172.655654,0.0,A,3,1,12,13.9,10.0,0.002,0.995,-0.123,-0.7,-3.8,0.2,101441,27.5,28.1,0,4.16,40.5,-0.08603461079542087,0.0025756829287253424
0.403,0,0,0,-43.81921,172.655654,0.0,A,3,1,12,13.9,10.0,-0.081,1.0,-0.046,-0.5,-6.4,-0.9,101441,27.5,28.0,0,4.11,75.9,-0.08603461079542087,0.00432912931966678
0.453,0,0,0,-43.81921,172.655654,0.0,A,3,1,12,13.9,10.0,-0.088,0.991,-0.08,0.0,3.0,-0.7,101441,27.2,28.1,0,4.16,42.9,-0.08603461079542087,-0.0018892846983357137
0.503,0,0,0,-43.81921,172.655654,0.0,A,3,1,12,13.9,10.0,-0.081,0.987,-0.158,-0.5,3.7,0.7,101435,27.2,28.1,0,4.14,43.3,0.43018335569223315,0.0028429587926517286
0.553,0,0,0,-43.81921,172.655654,0.0,A,3,1,12,13.9,10.0,-0.095,0.997,-0.092,-1.0,-5.1,1.1,101435,27.2,28.1,0,4.15,42.4,0.43018335569223315,0.005732568827319984
0.603,0,0,0,-43.81921,172.655654,0.0,A,3,1,12,13.9,10.0,-0.004,0.998,-0.105,-1.6,-1.9,0.7,101435,27.5,27.7,0,4.15,42.4,0.43018335569223315,0.003516317754723941
0.653,0,0,0,-43.81921,172.655654,0.0,A,3,1,12,13.9,10.0,-0.069,0.998,-0.079,-1.6,0.7,0.3,101435,27.0,27.7,0,4.14,42.4,0.43018335569223315,0.003496885894520352
0.703,0,0,0,-43.81921,172.655654,0.0,A,3,1,12,13.9,10.0,-0.084,0.992,-0.074,-0.6,-2.4,-0.1,101435,27.0,28.2,0,4.12,70.3,0.43018335569223315,-0.0017034508724373953
0.753,0,0,0,-43.81921,172.655654,0.0,A,3,1,12,13.9,10.0,0.014,0.994,-0.092,0.9,6.9,0.4,101433,27.2,27.9,0,4.12,76.8,0.6022615056609358,-0.0016533668109056654
0.803,0,0,0,-43.81921,172.655654,0.0,A,3,1,12,13.9,10.0,-0.078,1.0,-0.154,0.2,1.3,0.4,101433,27.0,27.9,0,4.14,49.8,0.6022615056609358,0.014790618797789312
0.853,0,0,0,-43.81921,172.655654,0.0,A,3,1,12,13.9,10.0,-0.103,0.991,-0.124,-1.4,-7.0,-0.1,101433,27.0,27.8,0,4.14,46.6,0.6022615056609358,0.004024900089634187
0.903,0,0,0,-43.81921,172.655654,0.0,A,3,1,12,13.9,10.0,-0.039,0.996,-0.125,-1.3,-0.5,0.9,101433,27.2,28.0,0,4.13,52.2,0.6022615056609358,0.004570555013434507
0.953,0,0,0,-43.81921,172.655654,0.0,A,3,1,12,13.9,10.0,-0.034,0.993,-0.083,-1.4,0.6,0.9,101433,27.5,28.0,0,4.14,48.4,0.6022615056609358,-0.002957373027612231
1.004,0,0,0,-43.81921,172.655654,0.0,A,3,1,12,13.9,10.0,-0.065,0.995,-0.064,-0.9,-3.0,0.8,101437,27.5,27.9,0,4.14,52.2,0.25810795302444456,-0.0008273422475972847
1.067,0,0,0,-43.81921,172.655654,0.0,A,3,1,12,13.9,10.0,0.012,0.996,-0.083,0.9,12.7,0.4,101437,27.0,28.1,0,4.16,40.1,0.25810795302444456,-0.00047561310391230904
1.106,0,0,0,-43.81921,172.655654,0.0,A,3,1,12,13.9,10.0,-0.016,0.999,-0.146,1.8,6.0,-0.4,101437,27.5,28.1,0,4.12,74.5,0.25810795302444456,0.009739075207055636
1.156,0,0,0,-43.81921,172.655654,0.0,A,3,1,12,13.9,10.0,-0.072,0.998,-0.141,-0.1,-2.3,-0.9,101437,27.0,27.8,0,4.15,42.9,0.25810795302444456,0.01047958910608382
1.206,0,0,0,-43.81921,172.655654,0.0,A,3,1,12,13.9,10.0,-0.058,0.987,-0.171,-0.9,-6.1,0.1,101437,27.0,27.9,0,4.14,42.4,0.25810795302444456,0.003381283461078022
1.256,0,0,0,-43.81921,172.655654,0.0,A,3,1,12,13.9,10.0,-0.078,0.995,-0.122,-2.1,-4.1,0.2,101438,27.2,27.9,0,4.11,71.2,0.17207128189720144,0.005481476706557853
1.306,0,0,0,-43.81921,172.655654,0.0,A,3,1,12,13.9,10.0,-0.101,0.995,-0.079,-1.6,-4.1,1.2,101438,27.0,27.7,0,4.14,45.2,0.17207128189720144,0.003228289074824753
1.356,0,0,0,-43.81921,172.655654,0.0,A,3,1,12,13.9,10.0,-0.055,0.997,-0.077,-1.1,3.0,1.2,101438,27.0,28.4,0,4.15,41.0,0.17207128189720144,0.0014804042016998142
1.406,0,0,0,-43.81921,172.655654,0.0,A,3,1,12,13.9,10.0,0.009,0.998,-0.095,-0.2,6.4,1.1,101438,28.0,28.4,0,4.14,42.9,0.17207128189720144,0.002551744300512304
1.456,0,0,0,-43.81921,172.655654,0.0,A,3,1,12,13.9,10.0,-0.037,0.994,-0.121,0.4,-0.1,-0.9,101438,27.2,28.2,0,4.11,72.6,0.17207128189720144,0.0020209578646546156
1.506,0,0,0,-43.81921,172.655654,0.0,A,3,1,12,13.9,10.0,-0.064,1.003,-0.045,-0.4,-0.4,-0.2,101434,27.2,28.1,0,4.14,44.3,0.5162220872582411,0.006046718597103595
1.556,0,0,0,-43.81921,172.655654,0.0,A,3,1,12,13.9,10.0,-0.064,0.985,-0.113,0.4,4.6,0.9,101434,27.7,28.1,0,4.15,39.1,0.5162220872582411,-0.006475969087813116
1.606,0,0,0,-43.81921,172.655654,0.0,A,3,1,12,13.9,10.0,-0.07,0.993,-0.137,-0.8,7.0,0.9,101434,27.2,28.1,0,4.12,72.6,0.5162220872582411,0.0048472520736670965
1.656,0,0,0,-43.81921,172.655654,0.0,A,3,1,12,13.9,10.0,-0.043,0.998,-0.143,-1.0,-2.7,1.6,101434,27.2,28.3,0,4.14,41.0,0.5162220872582411,0.009109508428099211
1.706,0,0,0,-43.81921,172.655654,0.0,A,3,1,12,13.9,10.0,-0.038,0.997,-0.092,-1.9,-0.5,-0.2,101434,27.5,28.3,0,4.14,41.9,0.5162220872582411,0.0019565858858356933
1.756,0,0,0,-43.81921,172.655654,0.0,A,3,1,12,13.9,10.0,-0.042,0.993,-0.075,-1.3,-8.8,-0.3,101437,27.2,28.2,0,4.12,70.3,0.25810795302444456,-0.003286400213180607
1.806,0,0,0,-43.81921,172.655654,0.0,A,3,1,12,13.9,10.0,-0.054,0.986,-0.107,-1.2,-3.1,-0.1,101437,27.2,27.8,0,4.14,48.4,0.25810795302444456,-0.006742228824762719
1.856,0,0,0,-43.81921,172.655654,0.0,A,3,1,12,13.9,10.0,-0.044,0.994,-0.099,-0.1,1.2,0.5,101437,27.0,27.8,0,4.14,47.1,0.25810795302444456,-0.00011350644185614822
1.906,0,0,0,-43.81921,172.655654,0.0,A,3,1,12,13.9,10.0,-0.071,0.997,-0.087,0.2,1.1,0.6,101437,27.7,28.2,0,4.15,48.4,0.25810795302444456,0.0033040416543730355
1.956,0,0,0,-43.81921,172.655654,0.0,A,3,1,12,13.9,10.0,-0.085,0.997,-0.123,-0.7,3.5,0.5,101439,27.7,28.1,0,4.12,76.8,0.08603529756081242,0.008148302582511757
2.019,0,0,0,-43.81921,172.655654,0.0,A,3,1,12,13.8,10.0,-0.065,0.998,-0.125,-1.2,0.4,0.2,101439,27.5,28.0,0,4.16,42.4,0.08603529756081242,0.007895827950488155
2.062,0,0,0,-43.81921,172.655654,0.0,A,3,1,12,13.8,10.0,-0.063,0.994,-0.1,-1.3,-5.5,0.2,101439,27.2,28.0,0,4.16,41.0,0.08603529756081242,0.0010019980000040007
2.11,0,0,0,-43.81921,172.655654,0.0,A,3,1,12,13.8,10.0,-0.037,0.998,-0.085,-1.6,-3.7,-0.2,101439,27.2,28.1,0,4.15,41.5,0.08603529756081242,0.002296363357664699
2.16,0,0,0,-43.81921,172.655654,0.0,A,3,1,12,13.8,10.0,-0.049,0.989,-0.097,-1.0,-3.7,0.3,101439,27.2,28.1,0,4.15,39.1,0.08603529756081242,-0.0050472373021923644
2.21,0,0,0,-43.81921,172.655654,0.0,A,3,1,12,13.8,10.0,-0.076,0.991,-0.093,-0.9,1.3,-0.1,101437,27.0,27.8,0,4.14,42.9,0.25810795302444456,-0.001748528676265848
2.26,0,0,0,-43.81921,172.655654,0.0,A,3,1,12,13.8,10.0,-0.063,1.001,-0.107,-0.2,2.0,0.2,101437,27.0,28.1,0,4.15,37.7,0.25810795302444456,0.008671899083145584
2.31,0,0,0,-43.81921,172.655654,0.0,A,3,1,12,13.8,10.0,-0.062,0.995,-0.104,-0.2,0.4,0.7,101437,27.2,28.1,0,4.12,72.6,0.25810795302444456,0.00233976275512493
2.36,0,0,0,-43.81921,172.655654,0.0,A,3,1,12,13.8,10.0,-0.051,0.994,-0.108,0.3,0.1,1.7,101437,26.5,27.5,0,4.17,41.9,0.25810795302444456,0.001149838935211589
2.41,0,0,0,-43.81921,172.655654,0.0,A,3,1,12,13.8,10.0,-0.072,0.987,-0.107,-0.5,5.4,0.8,101437,26.5,28.2,0,4.15,43.3,0.25810795302444456,-0.004609624318177352
2.46,0,0,0,-43.81921,172.655654,0.0,A,3,1,12,13.8,10.0,-0.028,1.0,-0.073,-0.4,1.8,0.7,101436,27.7,28.2,0,4.11,68.9,0.34414531095272677,0.003051843126764764
2.51,0,0,0,-43.81921,172.655654,0.0,A,3,1,12,13.8,10.0,-0.032,0.999,-0.119,-0.4,-2.3,0.0,101436,27.0,27.7,0,4.14,41.9,0.34414531095272677,0.006571408296500492
2.56,0,0,0,-43.81921,172.655654,0.0,A,3,1,12,13.8,10.0,-0.053,0.993,-0.122,-0.5,-2.3,-0.3,101436,27.0,28.2,0,4.14,39.6,0.34414531095272677,0.0018692529467105867
2.61,0,0,0,-43.81921,172.655654,0.0,A,3,1,12,13.8,10.0,-0.078,0.993,-0.103,-0.6,-0.7,0.2,101436,27.5,28.2,0,4.15,43.8,0.34414531095272677,0.0013700614657898846
2.66,0,0,0,-43.81921,172.655654,0.0,A,3,1,12,13.8,10.0,-0.066,0.993,-0.096,-0.7,1.0,1.0,101436,27.2,28.3,0,4.13,71.2,0.34414531095272677,-0.00018951795852828468
2.71,0,0,0,-43.81921,172.655654,0.0,A,3,1,12,13.8,10.0,-0.041,0.994,-0.117,-1.2,0.2,1.0,101437,27.2,28.2,0,4.16,43.3,0.25810795302444456,0.0017015523597834203
2.76,0,0,0,-43.81921,172.655654,0.0,A,3,1,12,13.8,10.0,-0.056,0.991,-0.113,-1.2,-1.5,0.6,101437,27.7,28.2,0,4.14,45.2,0.25810795302444456,-0.0010075075357172114
2.81,0,0,0,-43.81921,172.655654,0.0,A,3,1,12,13.8,10.0,-0.044,1.0,-0.073,-0.5,4.2,0.1,101437,27.5,28.2,0,4.11,74.0,0.25810795302444456,0.0036259263291278376
2.86,0,0,0,-43.81921,172.655654,0.0,A,3,1,12,13.8,10.0,-0.046,1.001,-0.072,-0.2,-0.5,0.2,101437,27.5,27.7,0,4.15,47.1,0.25810795302444456,0.00463973642296267
2.91,0,0,0,-43.81921,172.655654,0.0,A,3,1,12,13.8,10.0,-0.041,0.99,-0.133,-0.1,-0.8,0.4,101437,27.5,27.7,0,4.14,49.8,0.25810795302444456,-0.00026503512180786615
2.96,0,0,0,-43.81921,172.655654,0.0,A,3,1,12,13.8,10.0,-0.058,0.992,-0.125,-0.8,2.7,0.0,101437,27.5,28.2,0,4.15,46.6,0.25810795302444456,0.0015253366740153318
3.023,0,0,0,-43.81921,172.655654,0.0,A,3,1,12,13.8,10.0,-0.043,0.991,-0.122,-1.4,-1.3,1.2,101437,27.5,28.1,0,4.14,42.4,0.25810795302444456,-0.0005931759288413385
3.066,0,0,0,-43.81921,172.655654,0.0,A,3,1,12,13.8,10.0,-0.009,0.997,-0.094,-1.2,-2.0,0.8,101437,27.5,28.2,0,4.16,39.1,0.25810795302444456,0.0014619313783226229
3.114,0,0,0,-43.81921,172.655654,0.0,A,3,1,12,13.8,10.0,-0.036,0.996,-0.084,-0.8,-0.2,0.2,101437,27.5,28.2,0,4.14,41.5,0.25810795302444456,0.00018398307511402479
3.164,0,0,0,-43.81921,172.655654,0.0,A,3,1,12,13.8,10.0,-0.05,0.993,-0.083,0.0,1.2,0.0,101437,27.5,28.1,0,4.12,68.4,0.25810795302444456,-0.0022836074314505073
3.214,0,0,0,-43.81921,172.655654,0.0,A,3,1,12,13.8,10.0,-0.06,0.998,-0.12,0.5,2.2,0.1,101442,27.7,28.2,0,4.17,42.9,-0.1720685348458202,0.006977656157275414
3.264,0,0,0,-43.81921,172.655654,0.0,A,3,1,12,13.8,10.0,-0.061,0.994,-0.131,-0.1,0.5,0.1,101442,27.5,28.2,0,4.16,39.1,-0.1720685348458202,0.004449102742393851
3.314,0,0,0,-43.81921,172.655654,0.0,A,3,1,12,13.8,10.0,-0.05,0.994,-0.125,-1.2,-1.3,0.3,101442,27.5,27.9,0,4.14,41.0,-0.1720685348458202,0.0030757698200072348
3.364,0,0,0,-43.81921,172.655654,0.0,A,3,1,12,13.8,10.0,-0.056,0.989,-0.107,-1.5,-8.1,1.0,101442,27.2,27.5,0,4.12,48.9,-0.1720685348458202,-0.003653674669294449
3.414,0,0,0,-43.81921,172.655654,0.0,A,3,1,12,13.8,10.0,-0.059,0.994,-0.092,-2.1,-0.1,0.4,101442,27.2,27.5,0,4.16,42.9,-0.1720685348458202,-9.500045125454548e-06
3.464,0,0,0,-43.81921,172.655654,0.0,A,3,1,12,13.8,10.0,-0.026,1.0,-0.071,-1.0,-0.5,0.8,101436,27.2,28.2,0,4.14,39.1,0.34414531095272677,0.0028544261257463788
3.514,0,0,0,-43.81921,172.655654,0.0,A,3,1,12,13.8,10.0,-0.031,0.998,-0.085,0.0,5.4,0.5,101436,27.5,27.9,0,4.11,71.7,0.34414531095272677,0.0020928100729991073
3.564,0,0,0,-43.81921,172.655654,0.0,A,3,1,12,13.8,10.0,-0.035,0.997,-0.098,-0.1,1.3,0.1,101436,27.0,27.9,0,4.15,39.1,0.34414531095272677,0.0024160812756348626
3.614,0,0,0,-43.81921,172.655654,0.0,A,3,1,12,13.8,10.0,-0.05,0.988,-0.118,0.1,-3.2,0.4,101436,27.0,27.9,0,4.14,41.0,0.34414531095272677,-0.0037229301042807084
3.664,0,0,0,-43.81921,172.655654,0.0,A,3,1,12,13.8,10.0,-0.083,0.995,-0.101,-1.0,-0.9,-0.1,101436,27.5,28.1,0,4.13,67.5,0.34414531095272677,0.0035511945087804975
3.714,0,0,0,-43.81921,172.655654,0.0,A,3,1,12,13.8,10.0,-0.069,0.993,-0.107,-0.7,-0.8,0.7,101436,27.7,28.1,0,4.15,48.0,0.34414531095272677,0.0011288628343506524
3.764,0,0,0,-43.81921,172.655654,0.0,A,3,1,12,13.8,10.0,-0.056,0.995,-0.095,-0.7,3.6,0.7,101436,27.7,28.1,0,4.14,47.1,0.34414531095272677,0.0010924033274850586
3.814,0,0,0,-43.81921,172.655654,0.0,A,3,1,12,13.8,10.0,-0.053,0.994,-0.118,-0.6,2.9,0.4,101436,27.5,28.1,0,4.14,48.9,0.34414531095272677,0.0023816638386797706
3.864,0,0,0,-43.81921,172.655654,0.0,A,3,1,12,13.8,10.0,-0.05,0.99,-0.113,-0.5,-2.6,0.4,101436,27.5,28.1,0,4.12,71.7,0.34414531095272677,-0.002318186995473037
3.914,0,0,0,-43.81921,172.655654,0.0,A,3,1,12,13.8,10.0,-0.053,1.0,-0.096,-0.8,-1.6,0.2,101436,27.5,27.7,0,4.16,47.5,0.34414531095272677,0.005994532788324847
3.964,0,0,0,-43.81921,172.655654,0.0,A,3,1,12,13.8,10.0,-0.065,0.992,-0.108,-0.8,2.0,0.3,101440,27.2,28.2,0,4.14,45.2,0.0,-2.3500276131516173e-05
4.028,0,0,0,-43.819213,172.655654,0.0,A,3,1,12,13.8,10.0,-0.06,0.994,-0.114,-1.2,-2.8,0.2,101440,27.5,28.2,0,4.14,42.9,0.0,0.0023133242654214126
4.069,0,0,0,-43.819213,172.655654,0.0,A,3,1,12,13.8,10.0,-0.054,0.995,-0.102,-1.1,-7.9,0.4,101440,27.5,27.9,0,4.15,40.5,0.0,0.0016711037062016043
4.117,0,0,0,-43.819213,172.655654,0.0,A,3,1,12,13.8,10.0,-0.05,0.991,-0.101,-1.0,-0.1,0.5,101440,27.5,28.1,0,4.14,43.3,0.0,-0.0026124123491410023
4.167,0,0,0,-43.819213,172.655654,0.0,A,3,1,12,13.8,10.0,-0.049,0.998,-0.089,-0.7,5.3,0.4,101439,27.2,28.1,0,4.15,39.6,0.08603529756081242,0.003158013475444532
4.217,0,0,0,-43.819213,172.655654,0.0,A,3,1,12,13.8,10.0,-0.078,0.991,-0.093,-0.2,-0.5,0.8,101439,27.2,28.0,0,4.14,41.9,0.08603529756081242,-0.001594270849771262
4.267,0,0,0,-43.819213,172.655654,0.0,A,3,1,12,13.8,10.0,-0.048,0.991,-0.137,-0.5,4.1,0.5,101439,27.2,28.1,0,4.15,41.5,0.08603529756081242,0.0015757584925863988
4.317,0,0,0,-43.819213,172.655654,0.0,A,3,1,12,13.8,10.0,-0.045,0.993,-0.13,0.0,2.7,1.0,101439,27.5,28.1,0,4.14,42.4,0.08603529756081242,0.0024839150829303325
4.367,0,0,0,-43.819213,172.655654,0.0,A,3,1,12,13.8,10.0,-0.054,0.994,-0.107,-1.2,-4.2,0.0,101439,27.5,28.1,0,4.11,68.0,0.08603529756081242,0.0011997802636594113
4.417,0,0,0,-43.819213,172.655654,0.0,A,3,1,12,13.8,10.0,-0.044,0.996,-0.094,-1.0,-1.6,0.4,101439,27.7,27.9,0,4.11,72.2,0.08603529756081242,0.0013930297340800646
4.467,0,0,0,-43.819213,172.655654,0.0,A,3,1,12,13.8,10.0,-0.082,0.987,-0.088,-1.0,0.9,-0.1,101439,27.2,27.9,0,4.16,41.9,0.08603529756081242,-0.005697732075401585
4.517,0,0,0,-43.819213,172.655654,0.0,A,3,1,12,13.8,10.0,-0.068,1.0,-0.089,-0.1,-1.2,0.3,101439,27.2,28.0,0,4.11,72.2,0.08603529756081242,0.006252950306233851
4.567,0,0,0,-43.819213,172.655654,0.0,A,3,1,12,13.8,10.0,-0.012,0.995,-0.1,0.1,0.2,0.3,101439,27.2,28.3,0,4.15,40.5,0.08603529756081242,8.449643017671704e-05
4.617,0,0,0,-43.819213,172.655654,0.0,A,3,1,12,13.8,10.0,-0.042,0.991,-0.127,-0.3,2.6,0.4,101439,28.0,28.3,0,4.14,44.3,0.08603529756081242,-1.3000084501113562e-05
4.667,0,0,0,-43.819213,172.655654,0.0,A,3,1,12,13.8,10.0,-0.073,0.989,-0.113,-0.9,-3.6,0.4,101442,28.0,28.1,0,4.14,41.0,-0.1720685348458202,-0.0018922903814437841
4.717,0,0,0,-43.819213,172.655654,0.0,A,3,1,12,13.8,10.0,-0.045,0.992,-0.102,-1.3,-6.2,0.4,101442,27.5,28.1,0,4.11,78.2,-0.1720685348458202,-0.0017550400828462154
4.767,0,0,0,-43.819213,172.655654,0.0,A,3,1,12,13.8,10.0,-0.045,1.0,-0.075,-1.0,-1.8,0.5,101442,27.2,28.1,0,4.15,46.1,-0.1720685348458202,0.003817712535498119
4.817,0,0,0,-43.819213,172.655654,0.0,A,3,1,12,13.8,10.0,-0.063,0.99,-0.106,-1.0,4.7,0.1,101442,27.2,28.1,0,4.14,51.2,-0.1720685348458202,-0.0023502618654179797
4.867,0,0,0,-43.819213,172.655654,0.0,A,3,1,12,13.8,10.0,-0.054,0.995,-0.104,-0.1,-1.2,0.7,101442,27.7,27.9,0,4.11,75.4,-0.1720685348458202,0.0018767389255027744
4.917,0,0,0,-43.819213,172.655654,0.0,A,3,1,12,13.8,10.0,-0.037,0.995,-0.107,-0.5,-1.2,0.7,101442,27.0,27.9,0,4.12,75.0,-0.1720685348458202,0.0014204911025137434
4.967,0,0,0,-43.819213,172.655654,0.0,A,3,1,12,13.8,10.0,-0.038,0.991,-0.106,-0.7,2.2,0.5,101442,27.0,27.7,0,4.16,45.7,-0.1720685348458202,-0.002622939906877564
5.03,0,0,0,-43.81921,172.655654,0.0,A,3,1,12,13.8,10.0,-0.077,0.992,-0.107,-0.9,-5.6,0.2,101442,27.2,28.1,0,4.14,41.0,-0.1720685348458202,0.0007207402667339657
5.072,0,0,0,-43.81921,172.655654,0.0,A,3,1,12,13.8,10.0,-0.088,0.991,-0.082,-0.5,0.7,0.6,101442,27.5,28.1,0,4.11,69.4,-0.1720685348458202,-0.0017269912493877992
5.12,0,0,0,-43.81921,172.655654,0.0,A,3,1,12,13.8,10.0,-0.046,1.0,-0.107,-0.2,7.5,0.9,101442,27.0,27.6,0,4.15,42.9,-0.1720685348458202,0.006759653541996036
5.17,0,0,0,-43.81921,172.655654,0.0,A,3,1,12,13.8,10.0,-0.049,0.994,-0.14,-0.7,4.3,0.5,101440,27.0,28.3,0,4.15,38.2,0.0,0.005005970131521265
5.22,0,0,0,-43.81921,172.655654,0.0,A,3,1,12,13.8,10.0,-0.046,0.992,-0.105,-1.2,-9.5,0.5,101440,27.7,28.3,0,4.12,71.7,0.0,-0.001398477870176773
5.27,0,0,0,-43.81921,172.655654,0.0,A,3,1,12,13.8,10.0,-0.037,0.995,-0.085,-1.5,-2.4,0.1,101440,27.5,27.9,0,4.15,39.1,0.0,-0.0006907385598790006
5.32,0,0,0,-43.81921,172.655654,0.0,A,3,1,12,13.8,10.0,-0.043,0.991,-0.097,-0.4,3.2,0.5,101440,27.5,28.2,0,4.14,42.4,0.0,-0.003336064663720273
5.37,0,0,0,-43.81921,172.655654,0.0,A,3,1,12,13.8,10.0,-0.066,0.995,-0.108,-0.4,0.1,0.5,101440,27.7,28.2,0,4.14,38.7,0.0,0.0030179460009676085
5.42,0,0,0,-43.81921,172.655654,0.0,A,3,1,12,13.8,10.0,-0.078,0.993,-0.092,-0.7,1.9,0.9,101441,27.7,28.4,0,4.14,41.5,-0.08603461079542087,0.00029845546216855645
5.47,0,0,0,-43.81921,172.655654,0.0,A,3,1,12,13.8,10.0,-0.022,0.995,-0.126,-1.0,2.3,0.7,101441,27.7,27.8,0,4.15,38.2,-0.08603461079542087,0.0031874201763097965
5.52,0,0,0,-43.81921,172.655654,0.0,A,3,1,12,13.8,10.0,-0.034,0.992,-0.103,-1.3,-5.3,0.5,101441,27.0,27.8,0,4.14,41.0,-0.08603461079542087,-0.002087679202225745
5.57,0,0,0,-43.81921,172.655654,0.0,A,3,1,12,13.8,10.0,-0.102,0.986,-0.081,-1.8,-4.5,0.2,101441,27.5,28.3,0,4.13,68.4,-0.08603461079542087,-0.00543426562142213
5.62,0,0,0,-43.81921,172.655654,0.0,A,3,1,12,13.8,10.0,-0.041,0.997,-0.073,-0.5,4.8,0.8,101441,27.5,28.1,0,4.15,43.3,-0.08603461079542087,0.0005093702709635384
5.67,0,0,0,-43.81921,172.655654,0.0,A,3,1,12,13.8,10.0,-0.047,0.999,-0.097,0.4,5.5,0.9,101436,27.5,28.1,0,4.15,39.1,0.34414531095272677,0.00479798964767042
5.72,0,0,0,-43.81921,172.655654,0.0,A,3,1,12,13.8,10.0,-0.032,1.0,-0.088,0.1,3.8,0.3,101436,27.7,28.2,0,4.11,77.7,0.34414531095272677,0.00437443217158795
5.77,0,0,0,-43.81921,172.655654,0.0,A,3,1,12,13.8,10.0,-0.042,0.993,-0.11,-0.5,-1.8,-0.2,101436,27.7,28.1,0,4.14,46.1,0.34414531095272677,-4.350094616623057e-05
5.82,0,0,0,-43.81921,172.655654,0.0,A,3,1,12,13.8,10.0,-0.03,0.994,-0.085,-0.6,0.2,0.0,101436,27.2,28.1,0,4.14,48.9,0.34414531095272677,-0.0019213457848124005
5.87,0,0,0,-43.81921,172.655654,0.0,A,3,1,12,13.8,10.0,-0.105,0.995,-0.074,-1.0,-5.0,0.7,101436,27.7,28.3,0,4.14,45.2,0.34414531095272677,0.003257693715826848
5.92,0,0,0,-43.81921,172.655654,0.0,A,3,1,12,13.8,10.0,-0.069,0.993,-0.111,-0.5,2.0,1.6,101424,27.7,28.1,0,4.1,52.2,1.3766471810189238,0.0015642765194852082
5.971,0,0,0,-43.81921,172.655654,0.0,A,3,1,12,13.8,10.0,-0.039,0.997,-0.13,-0.4,8.0,1.1,101424,27.5,28.1,0,4.12,66.1,1.3766471810189238,0.006195805994042125
6.033,0,0,0,-43.81921,172.655654,0.0,A,3,1,12,13.8,10.0,-0.028,0.998,-0.136,-1.2,-5.4,0.1,101424,26.7,27.8,0,4.15,41.9,1.3766471810189238,0.007613020955962169
6.073,0,0,0,-43.81921,172.655654,0.0,A,3,1,12,13.8,10.0,-0.052,0.991,-0.088,-1.3,-15.1,-0.3,101424,26.7,28.4,0,4.12,69.4,1.3766471810189238,-0.0037425031649699347
6.122,0,0,0,-43.81921,172.655654,0.0,A,3,1,12,13.8,10.0,-0.046,0.992,-0.108,-2.2,-1.8,-1.0,101424,28.0,28.4,0,4.14,42.9,1.3766471810189238,-0.0010785816692086003
6.172,0,0,0,-43.81921,172.655654,0.0,A,3,1,12,13.8,10.0,-0.073,0.99,-0.096,-0.4,-4.7,0.9,101441,28.0,28.4,0,4.15,40.1,-0.08603461079542087,-0.0026810941328746507
6.222,0,0,0,-43.81921,172.655654,0.0,A,3,1,12,13.8,10.0,-0.102,0.998,-0.095,-0.3,2.6,1.0,101441,28.0,28.2,0,4.14,41.0,-0.08603461079542087,0.007686955358656933
6.272,0,0,0,-43.81921,172.655654,0.0,A,3,1,12,13.8,10.0,-0.002,0.992,-0.128,-0.6,7.3,1.2,101441,27.5,28.2,0,4.14,40.1,-0.08603461079542087,0.00022597446776995156
6.322,0,0,0,-43.81921,172.655654,0.0,A,3,1,12,13.8,10.0,-0.054,0.993,-0.119,-0.3,1.6,1.3,101441,27.0,27.6,0,4.14,46.1,-0.08603461079542087,0.0015617804209584474
6.372,0,0,0,-43.81921,172.655654,0.0,A,3,1,12,13.8,10.0,-0.044,0.994,-0.107,-1.2,-6.2,0.2,101441,27.0,28.2,0,4.15,41.5,-0.08603461079542087,0.0007102477740497104
6.422,0,0,0,-43.81921,172.655654,0.0,A,3,1,12,13.8,10.0,-0.069,0.996,-0.045,-2.3,-2.6,-0.8,101431,28.0,28.2,0,4.12,72.6,0.7743424030324028,-0.0005991795080413365
6.472,0,0,0,-43.81921,172.655654,0.0,A,3,1,12,13.8,10.0,-0.093,0.99,-0.093,0.1,3.4,1.2,101431,27.2,27.6,0,4.16,42.4,0.7743424030324028,-0.0013018474033307248
6.522,0,0,0,-43.81921,172.655654,0.0,A,3,1,12,13.8,10.0,-0.003,1.0,-0.119,0.4,12.3,0.7,101431,27.2,27.9,0,4.15,70.3,0.7743424030324028,0.00706007765177552
6.572,0,0,0,-43.81921,172.655654,0.0,A,3,1,12,13.8,10.0,-0.031,0.996,-0.092,0.5,0.6,0.9,101431,27.2,27.9,0,4.14,42.9,0.7743424030324028,0.0007202406267197148
6.622,0,0,0,-43.81921,172.655654,0.0,A,3,1,12,13.8,10.0,-0.054,0.986,-0.146,-0.7,-1.4,-0.1,101431,27.2,27.9,0,4.14,42.9,0.7743424030324028,-0.0017875977528630793
6.672,0,0,0,-43.81921,172.655654,0.0,A,3,1,12,13.8,10.0,-0.059,0.991,-0.124,-1.0,-3.5,0.2,101431,27.2,28.2,0,4.14,41.9,0.7743424030324028,0.0004688900710505539
6.722,0,0,0,-43.81921,172.655654,0.0,A,3,1,12,13.8,10.0,-0.062,0.995,-0.089,-1.9,0.0,0.4,101431,27.7,28.2,0,4.14,48.0,0.7743424030324028,0.0008945998455580639
6.772,0,0,0,-43.81921,172.655654,0.0,A,3,1,12,13.8,10.0,-0.055,1.003,-0.07,-0.8,0.9,0.8,101431,27.7,28.1,0,4.1,77.3,0.7743424030324028,0.006942898083103666
6.822,0,0,0,-43.81921,172.655654,0.0,A,3,1,12,13.8,10.0,-0.058,0.991,-0.113,-0.4,1.4,0.8,101431,27.7,28.2,0,4.14,50.8,0.7743424030324028,-0.0008933990809588677
6.872,0,0,0,-43.81921,172.655654,0.0,A,3,1,12,13.8,10.0,-0.022,0.991,-0.136,-0.6,6.7,0.2,101432,27.7,28.2,0,4.14,46.1,0.6883016109155947,0.0005303593594749856
6.922,0,0,0,-43.81921,172.655654,0.0,A,3,1,12,13.8,10.0,-0.046,0.993,-0.123,-0.5,-4.0,-0.1,101432,27.2,28.0,0,4.11,77.3,0.6883016109155947,0.0016456459247451427
6.978,0,0,0,-43.81921,172.655654,0.0,A,3,1,12,13.8,10.0,-0.063,0.995,-0.102,-1.3,-7.6,-0.7,101432,27.2,28.1,0,4.14,42.9,0.6883016109155947,0.002196587501673841
7.03,0,0,0,-43.81921,172.655654,0.0,A,3,1,11,13.8,10.0,-0.093,1.0,-0.071,-0.8,-4.9,0.3,101432,27.5,28.2,0,4.14,43.3,0.6883016109155947,0.006821731986353274
7.072,0,0,0,-43.81921,172.655654,0.0,A,3,1,11,13.8,10.0,-0.052,0.993,-0.085,-0.7,5.3,0.6,101432,27.5,28.2,0,4.11,68.4,0.6883016109155947,-0.0020130261371142932
7.122,0,0,0,-43.81921,172.655654,0.0,A,3,1,11,13.8,10.0,-0.018,0.993,-0.127,-0.4,0.4,1.2,101431,27.5,27.8,0,4.11,73.6,0.7743424030324028,0.0012502184768801161
7.172,0,0,0,-43.81921,172.655654,0.0,A,3,1,11,13.8,10.0,-0.055,1.001,-0.084,-0.7,-0.9,0.2,101431,27.0,27.8,0,4.17,42.9,0.7743424030324028,0.006022862563271891
7.222,0,0,0,-43.81921,172.655654,0.0,A,3,1,11,13.8,10.0,0.015,1.0,-0.113,-0.9,-4.0,-0.1,101431,27.7,28.3,0,4.14,41.5,0.7743424030324028,0.006476030514388276
7.272,0,0,0,-43.81921,172.655654,0.0,A,3,1,11,13.8,10.0,-0.11,0.993,-0.058,-0.3,-4.2,0.1,101431,27.7,28.2,0,4.11,69.8,0.7743424030324028,0.0007562140701400377
7.322,0,0,0,-43.81921,172.655654,0.0,A,3,1,11,13.8,10.0,-0.07,0.99,-0.094,-0.4,-0.9,0.2,101431,27.5,28.2,0,4.17,42.4,0.7743424030324028,-0.0030867640561692555
7.372,0,0,0,-43.81921,172.655654,0.0,A,3,1,11,13.8,10.0,-0.063,0.989,-0.123,-0.1,7.8,0.6,101433,27.7,28.3,0,4.15,39.1,0.6022615056609358,-0.0013914680917251898
7.422,0,0,0,-43.81921,172.655654,0.0,A,3,1,11,13.8,10.0,-0.053,0.997,-0.127,-0.3,3.9,1.1,101433,27.7,28.0,0,4.14,42.9,0.6022615056609358,0.0064526814510457164
7.472,0,0,0,-43.81921,172.655654,0.0,A,3,1,11,13.8,10.0,-0.021,1.003,-0.103,-1.3,-5.7,0.9,101433,27.5,28.0,0,4.15,39.1,0.6022615056609358,0.008493430816482572
7.522,0,0,0,-43.81921,172.655654,0.0,A,3,1,11,13.8,10.0,-0.05,0.996,-0.073,-1.5,-1.5,0.1,101433,27.2,27.8,0,4.14,44.7,0.6022615056609358,-7.75030033577373e-05
7.572,0,0,0,-43.81921,172.655654,0.0,A,3,1,11,13.8,10.0,-0.072,0.993,-0.086,-0.7,4.6,0.6,101433,27.2,28.3,0,4.11,65.7,0.6022615056609358,-0.0006857351163249703
7.622,0,0,0,-43.81921,172.655654,0.0,A,3,1,11,13.8,10.0,-0.028,0.992,-0.097,0.2,4.0,0.9,101432,27.2,28.3,0,4.11,70.3,0.6883016109155947,-0.002875634637283575
7.672,0,0,0,-43.81921,172.655654,0.0,A,3,1,11,13.8,10.0,-0.022,0.999,-0.085,0.7,-0.2,0.6,101432,27.2,27.8,0,4.16,43.8,0.6883016109155947,0.0028509360817290386
7.722,0,0,0,-43.81921,172.655654,0.0,A,3,1,11,13.8,10.0,-0.058,0.991,-0.12,-0.4,2.0,-0.4,101432,27.2,28.1,0,4.14,50.8,0.6883016109155947,-7.75030033577373e-05
7.772,0,0,0,-43.81921,172.655654,0.0,A,3,1,11,13.8,10.0,-0.098,0.989,-0.139,-1.2,-7.7,0.2,101432,27.5,28.1,0,4.14,47.1,0.6883016109155947,0.003516816002601786
7.822,0,0,0,-43.81921,172.655654,0.0,A,3,1,11,13.8,10.0,-0.056,1.002,-0.081,-1.3,-3.5,0.4,101432,27.2,28.1,0,4.14,47.5,0.6883016109155947,0.006827194706221729
7.872,0,0,0,-43.81921,172.655654,0.0,A,3,1,11,13.8,10.0,-0.03,0.994,-0.074,-0.5,8.5,0.5,101434,27.2,28.1,0,4.14,48.9,0.5162220872582411,-0.0027979141618283965
7.922,0,0,0,-43.81921,172.655654,0.0,A,3,1,11,13.8,10.0,-0.055,0.993,-0.109,-0.5,0.2,0.5,101434,27.5,28.1,0,4.14,49.4,0.5162220872582411,0.00047738605127900513
7.985,0,0,0,-43.81921,172.655654,0.0,A,3,1,11,13.8,10.0,-0.033,0.996,-0.108,-0.8,-1.3,0.7,101434,27.5,28.1,0,4.15,38.2,0.5162220872582411,0.0023816638386797706
8.028,0,0,0,-43.81921,172.655654,0.0,A,3,1,11,13.8,10.0,-0.068,0.991,-0.119,-0.8,3.4,0.5,101434,27.5,27.9,0,4.14,42.4,0.5162220872582411,0.0004329062960695129
8.076,0,0,0,-43.81921,172.655654,0.0,A,3,1,11,13.8,10.0,-0.052,1.005,-0.109,-0.9,-2.5,0.1,101434,27.2,28.2,0,4.15,43.8,0.5162220872582411,0.01223021096981669
8.126,0,0,0,-43.81921,172.655654,0.0,A,3,1,11,13.8,10.0,-0.017,0.992,-0.059,-0.5,-3.9,0.3,101436,28.0,28.2,0,4.11,72.6,0.34414531095272677,-0.0061016148519005275
8.176,0,0,0,-43.81921,172.655654,0.0,A,3,1,11,13.8,10.0,-0.069,0.996,-0.086,-0.4,2.9,0.2,101436,28.0,28.0,0,4.16,41.9,0.34414531095272677,0.0020843277888342726
8.226,0,0,0,-43.81921,172.655654,0.0,A,3,1,11,13.8,10.0,-0.057,0.989,-0.12,-0.4,3.6,0.3,101436,27.5,28.1,0,4.14,46.6,0.34414531095272677,-0.0021172413554787495
8.276,0,0,0,-43.81921,172.655654,0.0,A,3,1,11,13.8,10.0,-0.025,0.991,-0.138,-1.1,-2.0,0.8,101436,27.2,28.1,0,4.16,43.8,0.34414531095272677,0.0008746175220950558
8.326,0,0,0,-43.81921,172.655654,0.0,A,3,1,11,13.8,10.0,-0.046,1.005,-0.102,-1.2,-6.6,0.4,101436,27.2,28.2,0,4.14,44.7,0.34414531095272677,0.01120967163096287
8.376,0,0,0,-43.81921,172.655654,0.0,A,3,1,11,13.8,10.0,-0.077,0.987,-0.082,-1.3,-2.4,0.2,101434,27.5,28.1,0,4.14,42.4,0.5162220872582411,-0.006610851679967333
8.426,0,0,0,-43.81921,172.655654,0.0,A,3,1,11,13.8,10.0,-0.053,1.0,-0.081,-0.3,0.0,0.3,101434,27.7,28.1,0,4.16,44.7,0.5162220872582411,0.004674076504415536
8.476,0,0,0,-43.81921,172.655654,0.0,A,3,1,11,13.8,10.0,-0.032,0.99,-0.075,0.0,1.2,0.1,101434,27.7,28.2,0,4.11,71.2,0.5162220872582411,-0.006647595261379591
8.526,0,0,0,-43.81921,172.655654,0.0,A,3,1,11,13.8,10.0,-0.067,0.998,-0.117,0.1,2.7,0.1,101434,27.7,28.1,0,4.15,44.3,0.5162220872582411,0.007066035570657103
8.576,0,0,0,-43.81921,172.655654,0.0,A,3,1,11,13.8,10.0,-0.038,0.995,-0.14,-0.5,-1.1,0.4,101434,27.2,28.1,0,4.15,41.5,0.5162220872582411,0.005519268835759261
8.626,0,0,0,-43.81921,172.655654,0.0,A,3,1,11,13.8,10.0,-0.059,0.99,-0.13,-1.7,-4.8,0.4,101437,27.2,28.0,0,4.11,69.8,0.25810795302444456,0.00024047108682823115
8.676,0,0,0,-43.81921,172.655654,0.0,A,3,1,11,13.8,10.0,-0.071,1.0,-0.084,-2.0,-3.4,0.5,101437,27.5,27.6,0,4.16,41.9,0.25810795302444456,0.006030317634612814
8.726,0,0,0,-43.81921,172.655654,0.0,A,3,1,11,13.8,10.0,-0.081,0.988,-0.049,-1.8,-4.3,0.3,101437,27.0,27.6,0,4.14,51.2,0.25810795302444456,-0.0074749373441495015
8.776,0,0,0,-43.81921,172.655654,0.0,A,3,1,11,13.8,10.0,0.001,1.002,-0.07,0.5,7.6,1.0,101437,27.0,28.1,0,4.14,48.4,0.25810795302444456,0.0044426315126213645
8.826,0,0,0,-43.81921,172.655654,0.0,A,3,1,11,13.8,10.0,-0.06,0.992,-0.134,1.2,10.1,0.4,101437,27.5,28.1,0,4.11,78.7,0.25810795302444456,0.0028060630052053614
8.876,0,0,0,-43.81921,172.655654,0.0,A,3,1,11,13.8,10.0,-0.046,0.992,-0.139,-0.2,0.2,-0.5,101436,27.5,28.1,0,4.16,48.0,0.34414531095272677,0.00274672774335194
8.926,0,0,0,-43.81921,172.655654,0.0,A,3,1,11,13.8,10.0,-0.048,0.997,-0.116,-1.1,-9.6,0.0,101436,27.5,28.1,0,4.15,49.8,0.34414531095272677,0.004872628744558849
8.99,0,0,0,-43.81921,172.655654,0.0,A,3,1,11,13.8,10.0,-0.093,0.991,-0.085,-1.4,-0.7,0.9,101436,27.2,28.1,0,4.14,42.9,0.34414531095272677,-0.0010230232883241541
9.031,0,0,0,-43.81921,172.655654,0.0,A,3,1,11,13.8,10.0,-0.056,0.998,-0.089,-1.2,6.6,1.2,101436,27.5,28.1,0,4.11,75.0,0.34414531095272677,0.003524289691086535
9.079,0,0,0,-43.81921,172.655654,0.0,A,3,1,11,13.8,10.0,-0.021,0.996,-0.087,-0.2,2.9,1.2,101434,27.5,27.7,0,4.14,42.9,0.5162220872582411,1.2999915501188397e-05
9.129,0,0,0,-43.81921,172.655654,0.0,A,3,1,11,13.8,10.0,-0.011,0.992,-0.112,-0.4,3.4,0.2,101434,27.0,28.1,0,4.14,43.3,0.5162220872582411,-0.0016368396219740289
9.179,0,0,0,-43.81921,172.655654,0.0,A,3,1,11,13.8,10.0,-0.033,1.001,-0.116,-0.4,-3.5,-0.7,101434,27.5,28.1,0,4.13,70.8,0.5162220872582411,0.008239058953777745
9.229,0,0,0,-43.81921,172.655654,0.0,A,3,1,11,13.8,10.0,-0.069,0.99,-0.12,-0.5,-3.2,-0.4,101434,27.5,28.2,0,4.14,41.9,0.5162220872582411,-0.00036956829036061123
9.279,0,0,0,-43.81921,172.655654,0.0,A,3,1,11,13.8,10.0,-0.074,0.996,-0.1,-0.7,-2.6,0.2,101434,27.5,28.2,0,4.14,41.5,0.5162220872582411,0.003739009902474555
9.329,0,0,0,-43.81921,172.655654,0.0,A,3,1,11,13.8,10.0,-0.065,0.989,-0.097,-0.7,5.5,1.2,101438,27.7,28.2,0,4.12,73.6,0.17207128189720144,-0.0041310327156488524
9.379,0,0,0,-43.81921,172.655654,0.0,A,3,1,11,13.8,10.0,-0.035,0.997,-0.111,-0.7,0.1,1.5,101438,27.7,27.8,0,4.14,40.5,0.17207128189720144,0.0037703920718124007
9.429,0,0,0,-43.81921,172.655654,0.0,A,3,1,11,13.8,10.0,-0.027,0.996,-0.117,-1.0,1.2,0.2,101438,27.2,28.0,0,4.14,44.3,0.17207128189720144,0.0032118420353699495
9.479,0,0,0,-43.81921,172.655654,0.0,A,3,1,11,13.8,10.0,-0.032,0.991,-0.091,-0.9,-7.9,-0.1,101438,27.2,28.0,0,4.15,43.3,0.17207128189720144,-0.004316315288836359
9.529,0,0,0,-43.81921,172.655654,0.0,A,3,1,11,13.8,10.0,-0.056,1.001,-0.078,-0.8,0.9,-0.9,101438,27.5,28.1,0,4.1,74.0,0.17207128189720144,0.005594848833266219
9.579,0,0,0,-43.81921,172.655654,0.0,A,3,1,11,13.8,10.0,-0.104,0.988,-0.104,0.1,-1.0,0.8,101435,27.5,28.4,0,4.14,41.0,0.43018335569223315,-0.001112618960475542
9.629,0,0,0,-43.81921,172.655654,0.0,A,3,1,11,13.8,10.0,-0.056,0.996,-0.116,-0.8,6.5,0.8,101435,27.7,28.4,0,4.15,43.8,0.43018335569223315,0.004294777443355935
9.679,0,0,0,-43.81921,172.655654,0.0,A,3,1,11,13.8,10.0,-0.023,0.996,-0.142,-0.7,4.6,1.7,101435,27.5,28.1,0,4.11,72.2,0.43018335569223315,0.006334437451089192
9.729,0,0,0,-43.81921,172.655654,0.0,A,3,1,11,13.8,10.0,-0.059,1.0,-0.092,-1.3,-2.8,0.6,101435,27.5,27.8,0,4.14,50.3,0.43018335569223315,0.005954770355009575
9.779,0,0,0,-43.81921,172.655654,0.0,A,3,1,11,13.8,10.0,-0.048,1.0,-0.074,-2.0,-12.1,-0.3,101435,27.0,27.8,0,4.15,48.0,0.43018335569223315,0.003882463239596623
9.829,0,0,0,-43.81921,172.655654,0.0,A,3,1,11,13.8,10.0,-0.003,0.987,-0.091,-0.8,-0.7,0.2,101439,27.5,28.1,0,4.13,50.8,0.08603529756081242,-0.008809301899982525
9.879,0,0,0,-43.81921,172.655654,0.0,A,3,1,11,13.8,10.0,-0.08,0.997,-0.058,0.5,0.6,0.4,101439,27.5,27.8,0,4.15,47.5,0.08603529756081242,0.0018847239078956246
9.929,0,0,0,-43.81921,172.655654,0.0,A,3,1,11,13.8,10.0,-0.015,0.993,-0.118,0.9,-0.3,-0.6,101439,27.2,27.8,0,4.14,48.0,0.08603529756081242,9.899509998501088e-05
9.992,0,0,0,-43.819206,172.655654,0.0,A,3,1,11,13.8,10.0,-0.073,0.994,-0.111,0.2,-0.3,0.1,101439,27.5,28.2,0,4.16,44.3,0.08603529756081242,0.0028389701243165533
10.034,0,0,0,-43.819206,172.655654,0.0,A,3,1,11,13.8,10.0,-0.068,0.99,-0.121,-0.5,3.5,0.4,101439,27.5,28.1,0,4.12,74.5,0.08603529756081242,-0.00031755041913439364
10.082,0,0,0,-43.819206,172.655654,0.0,A,3,1,11,13.8,10.0,-0.047,0.978,-0.142,-1.0,1.5,0.9,101438,27.0,28.1,0,4.14,39.6,0.17207128189720144,-0.010627976946992912
10.132,0,0,0,-43.819206,172.655654,0.0,A,3,1,11,13.8,10.0,-0.052,0.981,-0.117,-2.3,-5.3,0.5,101438,27.2,28.1,0,4.14,43.8,0.17207128189720144,-0.010680031536813628
10.182,0,0,0,-43.819206,172.655654,0.0,A,3,1,11,13.8,10.0,-0.031,1.036,-0.098,-1.7,-0.7,0.9,101438,27.2,28.3,0,4.11,73.1,0.17207128189720144,0.04108645174164094
10.232,0,0,0,-43.819206,172.655654,0.0,A,3,1,11,13.8,10.0,-0.085,0.983,-0.085,-1.2,3.7,1.0,101438,27.2,28.3,0,4.14,43.8,0.17207128189720144,-0.009677325312603013
10.282,0,0,0,-43.819206,172.655654,0.0,A,3,1,11,13.8,10.0,-0.029,0.985,-0.069,0.5,5.7,0.9,101438,27.0,27.8,0,4.15,40.5,0.17207128189720144,-0.012160438127729156
10.332,0,0,0,-43.819206,172.655654,0.0,A,3,1,11,13.8,10.0,-0.062,0.991,-0.129,0.1,2.6,-0.4,101435,27.0,28.1,0,4.16,40.5,0.43018335569223315,0.001282178009775592
10.382,0,0,0,-43.819206,172.655654,0.0,A,3,1,11,13.8,10.0,-0.038,0.996,-0.133,0.3,-4.6,0.1,101435,27.5,28.1,0,4.12,60.1,0.43018335569223315,0.0055590484899432635
10.432,0,0,0,-43.819206,172.655654,0.0,A,3,1,11,13.8,10.0,-0.041,1.008,-0.111,-0.7,-2.2,-0.2,101435,27.0,27.7,0,4.14,41.9,0.43018335569223315,0.014921671854532859
10.482,0,0,0,-43.819206,172.655654,0.0,A,3,1,11,13.8,10.0,-0.09,0.977,-0.121,-1.2,-2.1,0.3,101435,27.0,28.3,0,4.14,41.9,0.43018335569223315,-0.011430326178270889
10.532,0,0,0,-43.819206,172.655654,0.0,A,3,1,11,13.8,10.0,-0.088,0.997,-0.1,-1.5,-2.0,1.2,101435,27.5,28.3,0,4.11,75.4,0.43018335569223315,0.0058593341019410605
10.582,0,0,0,-43.819206,172.655654,0.0,A,3,1,11,13.8,10.0,-0.065,0.989,-0.092,-1.5,0.4,1.5,101437,26.7,27.7,0,4.15,41.9,0.25810795302444456,-0.004605605802403545
10.632,0,0,0,-43.819206,172.655654,0.0,A,3,1,11,13.8,10.0,-0.019,1.005,-0.083,-0.9,2.7,0.7,101437,26.7,28.0,0,4.14,41.0,0.25810795302444456,0.00860051556599939
10.682,0,0,0,-43.819206,172.655654,0.0,A,3,1,11,13.8,10.0,-0.021,0.994,-0.101,0.3,0.6,0.4,101437,27.2,28.0,0,4.15,44.3,0.25810795302444456,-0.0006612186050217739
10.732,0,0,0,-43.819206,172.655654,0.0,A,3,1,11,13.8,10.0,-0.051,0.977,-0.123,-0.4,4.5,-0.5,101437,27.7,28.4,0,4.11,76.8,0.25810795302444456,-0.013968053255879576
10.782,0,0,0,-43.819206,172.655654,0.0,A,3,1,11,13.8,10.0,-0.046,0.999,-0.125,-0.5,-2.4,0.1,101437,27.7,28.0,0,4.14,44.7,0.25810795302444456,0.007840265121412893
10.832,0,0,0,-43.819206,172.655654,0.0,A,3,1,11,13.8,10.0,-0.096,0.991,-0.124,-0.6,-1.8,0.6,101433,27.0,28.0,0,4.14,49.8,0.6022615056609358,0.0033309523781273054
10.882,0,0,0,-43.819206,172.655654,0.0,A,3,1,11,13.8,10.0,-0.074,0.995,-0.121,-1.0,-2.1,1.3,101433,27.5,28.2,0,4.12,79.1,0.6022615056609358,0.0050582072696088165
10.933,0,0,0,-43.819206,172.655654,0.0,A,3,1,11,13.8,10.0,-0.029,0.995,-0.112,-1.3,2.1,0.7,101433,27.5,28.4,0,4.15,48.9,0.6022615056609358,0.0017035489604697585
10.996,0,0,0,-43.81921,172.655654,0.0,A,3,1,11,13.8,10.0,-0.029,0.984,-0.105,-1.1,-0.9,0.0,101433,27.7,27.9,0,4.14,41.0,0.6022615056609358,-0.009988888951240171
11.035,0,0,0,-43.81921,172.655654,0.0,A,3,1,11,13.8,10.0,-0.041,1.01,-0.074,-0.4,-3.8,-0.1,101433,27.2,27.9,0,4.14,45.7,0.6022615056609358,0.013536876487481475
11.084,0,0,0,-43.81921,172.655654,0.0,A,3,1,11,13.8,10.0,-0.071,0.986,-0.085,0.1,2.2,-0.1,101436,27.2,28.1,0,4.14,40.1,0.34414531095272677,-0.007799415440607582
11.134,0,0,0,-43.81921,172.655654,0.0,A,3,1,11,13.8,10.0,-0.067,0.998,-0.143,0.2,5.8,0.8,101436,27.2,28.1,0,4.15,43.3,0.34414531095272677,0.01041674570446438
11.184,0,0,0,-43.81921,172.655654,0.0,A,3,1,11,13.8,10.0,-0.064,0.993,-0.133,-0.5,-3.0,0.6,101436,27.0,28.0,0,4.14,41.5,0.34414531095272677,0.0039093584582226
11.234,0,0,0,-43.81921,172.655654,0.0,A,3,1,11,13.8,10.0,-0.021,0.994,-0.103,-1.4,-2.3,0.5,101436,27.0,28.2,0,4.12,75.0,0.34414531095272677,-0.0004571044722492257
11.284,0,0,0,-43.81921,172.655654,0.0,A,3,1,11,13.8,10.0,-0.062,1.0,-0.117,-1.3,-3.9,0.2,101436,27.5,28.2,0,4.11,68.4,0.34414531095272677,0.008728407451678688
11.334,0,0,0,-43.81921,172.655654,0.0,A,3,1,11,13.8,10.0,-0.047,0.989,-0.082,-1.2,-6.2,-0.2,101439,27.2,27.7,0,4.15,43.8,0.08603529756081242,-0.006494086580255964
11.384,0,0,0,-43.81921,172.655654,0.0,A,3,1,11,13.8,10.0,-0.054,1.007,-0.081,-0.1,-0.5,0.4,101439,27.2,27.9,0,4.11,70.8,0.08603529756081242,0.011694617955438025
11.434,0,0,0,-43.81921,172.655654,0.0,A,3,1,11,13.8,10.0,-0.089,0.984,-0.109,-0.1,4.7,0.4,101439,27.0,27.9,0,4.14,41.0,0.08603529756081242,-0.005988933663211182
11.484,0,0,0,-43.81921,172.655654,0.0,A,3,1,11,13.8,10.0,-0.046,0.997,-0.12,-0.5,3.4,0.5,101439,27.5,28.3,0,4.16,41.0,0.08603529756081242,0.005248725440624602
11.534,0,0,0,-43.81921,172.655654,0.0,A,3,1,11,13.8,10.0,-0.055,0.996,-0.104,-1.2,-2.4,0.9,101438,27.5,28.2,0,4.14,43.3,0.17207128189720144,0.0029242244556664243
11.584,0,0,0,-43.81921,172.655654,0.0,A,3,1,11,13.8,10.0,-0.058,0.991,-0.083,-1.0,-1.6,1.0,101438,27.5,28.2,0,4.11,69.8,0.17207128189720144,-0.0038403742371406757
11.634,0,0,0,-43.81921,172.655654,0.0,A,3,1,11,13.8,10.0,-0.028,1.003,-0.099,-0.8,3.9,0.2,101438,27.5,27.9,0,4.14,41.5,0.17207128189720144,0.008262862551229544
11.684,0,0,0,-43.81921,172.655654,0.0,A,3,1,11,13.8,10.0,-0.035,0.99,-0.129,0.1,1.5,0.5,101438,27.5,28.4,0,4.14,49.4,0.17207128189720144,-0.0010175176711054723
11.734,0,0,0,-43.81921,172.655654,0.0,A,3,1,11,13.8,10.0,-0.086,1.001,-0.1,-0.9,-2.3,-0.2,101438,27.7,28.4,0,4.11,81.0,0.17207128189720144,0.009651920218052057
11.784,0,0,0,-43.81921,172.655654,0.0,A,3,1,11,13.8,10.0,-0.068,0.99,-0.104,-0.9,-1.7,0.9,101434,26.7,27.6,0,4.11,73.6,0.5162220872582411,-0.0022324920102879675
11.834,0,0,0,-43.81921,172.655654,0.0,A,3,1,11,13.8,10.0,-0.031,0.993,-0.099,-1.2,-0.2,1.4,101434,26.7,27.7,0,4.14,48.9,0.5162220872582411,-0.0015957732461265861
11.884,0,0,0,-43.81921,172.655654,0.0,A,3,1,11,13.8,10.0,-0.037,0.997,-0.111,-1.0,3.6,1.0,101434,26.7,27.7,0,4.14,46.6,0.5162220872582411,0.003842119060562199
11.935,0,0,0,-43.81921,172.655654,0.0,A,3,1,11,13.8,10.0,-0.067,0.988,-0.088,-0.7,-0.1,0.1,101434,27.7,28.0,0,4.14,43.3,0.5162220872582411,-0.005828485622324853
11.998,0,0,0,-43.81921,172.655654,0.0,A,3,1,11,13.8,10.0,-0.068,0.987,-0.112,0.1,-4.0,-0.2,101434,27.2,28.2,0,4.16,42.4,0.5162220872582411,-0.0043409218010413975
12.037,0,0,0,-43.81921,172.655654,0.0,A,3,1,11,13.8,10.0,-0.051,0.995,-0.09,-0.1,0.5,0.1,101436,27.2,28.2,0,4.14,41.9,0.34414531095272677,0.0003629341394051355
12.086,0,0,0,-43.81921,172.655654,0.0,A,3,1,11,13.8,10.0,-0.09,0.99,-0.128,-0.5,4.1,1.0,101436,27.5,28.2,0,4.11,73.1,0.34414531095272677,0.002289379371047673
12.136,0,0,0,-43.81921,172.655654,0.0,A,3,1,11,13.8,10.0,-0.058,0.989,-0.153,-1.8,1.0,1.1,101436,27.5,28.0,0,4.15,42.4,0.34414531095272677,0.002444013399252043
12.186,0,0,0,-43.81921,172.655654,0.0,A,3,1,11,13.8,10.0,-0.015,0.995,-0.101,-1.6,-7.0,1.0,101436,27.2,28.1,0,4.14,41.9,0.34414531095272677,0.00022547458060673264
12.236,0,0,0,-43.81921,172.655654,0.0,A,3,1,11,13.8,10.0,-0.007,1.007,-0.073,-1.6,-3.0,-0.5,101436,27.7,28.1,0,4.14,42.9,0.34414531095272677,0.009666776713980862
12.286,0,0,0,-43.81921,172.655654,0.0,A,3,1,11,13.8,10.0,-0.074,0.996,-0.066,0.1,-3.4,0.0,101435,27.7,28.2,0,4.14,41.9,0.43018335569223315,0.0009235735059895944
12.336,0,0,0,-43.81921,172.655654,0.0,A,3,1,11,13.8,10.0,-0.061,0.992,-0.133,0.3,5.2,-0.3,101435,27.7,27.9,0,4.11,71.2,0.43018335569223315,0.0027332646322251186
12.386,0,0,0,-43.81921,172.655654,0.0,A,3,1,11,13.8,10.0,-0.057,0.995,-0.121,0.4,2.5,0.7,101435,27.0,27.9,0,4.15,41.9,0.43018335569223315,0.003949699935210882
12.436,0,0,0,-43.81921,172.655654,0.0,A,3,1,11,13.8,10.0,-0.08,0.991,-0.111,-1.3,-5.9,0.9,101435,27.0,28.2,0,4.11,74.5,0.43018335569223315,0.0004009196317245056
12.486,0,0,0,-43.81921,172.655654,0.0,A,3,1,11,13.8,10.0,-0.055,0.997,-0.092,-1.7,-1.4,0.7,101435,28.0,28.1,0,4.15,41.0,0.43018335569223315,0.0027452318510419182
12.536,0,0,0,-43.81921,172.655654,0.0,A,3,1,11,13.8,10.0,-0.052,0.991,-0.132,-1.6,5.8,0.4,101433,27.2,28.1,0,4.14,44.7,0.6022615056609358,0.0011038907126472708
12.586,0,0,0,-43.81921,172.655654,0.0,A,3,1,11,13.8,10.0,-0.055,0.996,-0.101,-0.7,-3.2,0.4,101433,27.2,28.4,0,4.12,71.7,0.6022615056609358,0.0026175741527774132
12.636,0,0,0,-43.81921,172.655654,0.0,A,3,1,11,13.8,10.0,-0.066,1.003,-0.038,-0.5,-9.8,-0.3,101433,27.7,28.0,0,4.14,43.3,0.6022615056609358,0.005887170611097892
12.686,0,0,0,-43.81921,172.655654,0.0,A,3,1,11,13.8,10.0,-0.02,0.99,-0.077,0.9,5.7,0.4,101433,27.7,28.0,0,4.14,47.5,0.6022615056609358,-0.006808679055238631
12.736,0,0,0,-43.81921,172.655654,0.0,A,3,1,11,13.8,10.0,-0.058,0.988,-0.162,1.1,12.5,1.0,101433,27.7,28.1,0,4.14,51.7,0.6022615056609358,0.0028718761636503665
12.786,0,0,0,-43.81921,172.655654,0.0,A,3,1,11,13.8,10.0,-0.07,0.985,-0.148,-1.1,-2.4,0.4,101431,27.2,27.7,0,4.14,48.0,0.7743424030324028,-0.0014866049972088735
12.836,0,0,0,-43.81921,172.655654,0.0,A,3,1,11,13.8,10.0,-0.018,0.993,-0.12,-2.3,-7.9,0.8,101431,27.0,27.7,0,4.12,77.7,0.7743424030324028,0.000386425337729035
12.886,0,0,0,-43.81921,172.655654,0.0,A,3,1,11,13.8,10.0,-0.07,0.999,-0.083,-2.4,2.9,0.5,101431,27.0,27.9,0,4.14,47.5,0.7743424030324028,0.004883077775718059
12.942,0,0,0,-43.81921,172.655654,0.0,A,3,1,11,13.8,10.0,-0.049,0.999,-0.082,-0.7,-1.0,1.0,101431,27.5,28.1,0,4.14,45.2,0.7743424030324028,0.003556675031360701
12.994,0,0,0,-43.819206,172.655654,0.0,A,3,1,11,13.8,10.0,-0.047,1.002,-0.101,0.4,1.5,0.7,101431,27.5,28.1,0,4.15,41.0,0.7743424030324028,0.008173596162882824
13.036,0,0,0,-43.819206,172.655654,0.0,A,3,1,11,13.8,10.0,-0.031,0.99,-0.09,0.6,4.1,-0.1,101435,27.5,28.2,0,4.15,45.7,0.43018335569223315,-0.00543426562142213
13.086,0,0,0,-43.819206,172.655654,0.0,A,3,1,11,13.8,10.0,-0.06,0.984,-0.167,0.0,0.8,0.0,101435,27.5,28.2,0,4.15,42.4,0.43018335569223315,-0.0001275081291614022
13.136,0,0,0,-43.819206,172.655654,0.0,A,3,1,11,13.8,10.0,-0.09,0.994,-0.125,-0.7,-5.1,0.3,101435,27.5,28.2,0,4.15,44.3,0.43018335569223315,0.005863310793270626
13.186,0,0,0,-43.819206,172.655654,0.0,A,3,1,11,13.8,10.0,-0.019,1.004,-0.09,-1.2,3.1,0.1,101435,27.5,28.2,0,4.14,40.5,0.43018335569223315,0.008204840297843408
13.236,0,0,0,-43.819206,172.655654,0.0,A,3,1,11,13.8,10.0,-0.055,0.996,-0.105,-1.0,1.0,0.9,101435,27.5,28.3,0,4.14,43.3,0.43018335569223315,0.0030284143532526286
13.286,0,0,0,-43.819206,172.655654,0.0,A,3,1,11,13.8,10.0,-0.072,0.985,-0.124,-1.0,0.1,1.0,101433,27.7,28.3,0,4.11,72.2,0.6022615056609358,-0.0046181637180634505
13.336,0,0,0,-43.819206,172.655654,0.0,A,3,1,11,13.8,10.0,-0.021,0.997,-0.107,-0.7,-1.2,0.4,101433,27.7,28.0,0,4.14,43.3,0.6022615056609358,0.002945163007429974
13.386,0,0,0,-43.819206,172.655654,0.0,A,3,1,11,13.8,10.0,-0.005,1.002,-0.105,-0.3,-1.9,0.2,101433,27.0,28.1,0,4.11,67.1,0.6022615056609358,0.007498883374071008
13.436,0,0,0,-43.819206,172.655654,0.0,A,3,1,11,13.8,10.0,-0.091,0.994,-0.098,-0.8,-0.6,-0.2,101433,27.5,28.1,0,4.15,45.2,0.6022615056609358,0.0029561306458025793
13.486,0,0,0,-43.819206,172.655654,0.0,A,3,1,11,13.8,10.0,-0.074,0.988,-0.116,-1.0,-4.2,0.5,101433,27.5,28.1,0,4.14,43.8,0.6022615056609358,-0.0024650382066802035
13.536,0,0,0,-43.819206,172.655654,0.0,A,3,1,11,13.8,10.0,-0.048,0.994,-0.114,-1.2,3.7,0.8,101438,27.2,27.8,0,4.15,41.9,0.17207128189720144,0.0016666112035481628
13.586,0,0,0,-43.819206,172.655654,0.0,A,3,1,11,13.8,10.0,-0.048,0.997,-0.125,-1.2,1.8,1.0,101438,27.0,27.8,0,4.15,39.1,0.17207128189720144,0.005951291067316067
13.636,0,0,0,-43.819206,172.655654,0.0,A,3,1,11,13.8,10.0,-0.04,0.989,-0.073,-1.5,-5.2,1.0,101438,27.0,28.2,0,4.11,75.0,0.17207128189720144,-0.007503148619603883
13.686,0,0,0,-43.819206,172.655654,0.0,A,3,1,11,13.8,10.0,-0.026,1.0,-0.052,-0.9,-2.2,0.4,101438,27.7,28.1,0,4.14,46.1,0.17207128189720144,0.0016885743583181512
13.736,0,0,0,-43.819206,172.655654,0.0,A,3,1,11,13.8,10.0,-0.049,1.0,-0.085,0.6,4.0,0.3,101438,27.0,28.1,0,4.15,50.3,0.17207128189720144,0.004801472928856798
13.786,0,0,0,-43.819206,172.655654,0.0,A,3,1,11,13.8,10.0,-0.078,0.99,-0.143,0.7,7.7,-0.3,101429,27.0,28.0,0,4.11,79.1,0.9464260478982991,0.0033110185779881007
13.836,0,0,0,-43.819206,172.655654,0.0,A,3,1,11,13.8,10.0,-0.051,0.995,-0.144,-0.1,-3.0,0.4,101429,26.7,28.0,0,4.14,51.2,0.9464260478982991,0.006658829991571746
13.886,0,0,0,-43.819206,172.655654,0.0,A,3,1,11,13.8,10.0,-0.057,0.993,-0.096,-1.0,0.6,0.6,101429,27.2,28.0,0,4.15,45.2,0.9464260478982991,-0.0007432762297768791
13.948,0,0,0,-43.819206,172.655654,0.0,A,3,1,12,13.8,10.0,-0.064,0.994,-0.119,-1.9,-4.6,1.3,101429,27.2,28.1,0,4.11,72.2,0.9464260478982991,0.0031415652837838426
13.992,0,0,0,-43.819206,172.655654,0.0,A,3,1,12,13.8,10.0,-0.082,0.99,-0.096,-1.8,-6.6,0.9,101435,27.2,27.7,0,4.11,73.1,0.43018335569223315,-0.001981964090828736
14.039,0,0,0,-43.819206,172.655654,0.0,A,3,1,12,13.8,10.0,0.003,1.002,-0.081,-1.0,3.5,0.2,101435,27.0,27.7,0,4.16,41.0,0.43018335569223315,0.005273097222839196
14.089,0,0,0,-43.819206,172.655654,0.0,A,3,1,12,13.8,10.0,-0.013,1.0,-0.074,0.4,-1.6,-0.3,101435,28.0,28.3,0,4.23,38.7,0.43018335569223315,0.0028185279500974048
14.139,0,0,0,-43.819206,172.655654,0.0,A,3,1,12,13.8,10.0,-0.081,0.989,-0.121,0.9,-0.1,-0.5,101435,28.0,28.1,0,4.11,75.4,0.43018335569223315,-0.00033855731052623295
14.189,0,0,0,-43.819206,172.655654,0.0,A,3,1,12,13.8,10.0,-0.086,0.992,-0.132,0.1,4.0,0.1,101435,27.5,28.1,0,4.16,41.0,0.43018335569223315,0.004432177899533318
14.239,0,0,0,-43.819206,172.655654,0.0,A,3,1,12,13.8,10.0,-0.061,0.996,-0.133,-0.7,3.2,0.9,101436,27.5,28.1,0,4.14,46.6,0.34414531095272677,0.006690617816615951
14.289,0,0,0,-43.819206,172.655654,0.0,A,3,1,12,13.8,10.0,-0.058,0.996,-0.108,-1.6,-5.5,1.5,101436,27.5,28.2,0,4.16,42.9,0.34414531095272677,0.0035158195065985165
14.339,0,0,0,-43.819206,172.655654,0.0,A,3,1,12,13.8,10.0,-0.032,0.995,-0.122,-2.1,0.4,0.6,101436,27.5,28.2,0,4.14,42.9,0.34414531095272677,0.002962112943455164
14.389,0,0,0,-43.819206,172.655654,0.0,A,3,1,12,13.8,10.0,-0.032,0.994,-0.093,-1.4,-3.0,0.0,101436,27.0,27.9,0,4.15,42.4,0.34414531095272677,-0.0011461568377483244
14.439,0,0,0,-43.819206,172.655654,0.0,A,3,1,12,13.8,10.0,-0.033,1.002,-0.019,-0.8,-4.8,-0.7,101436,27.0,28.1,0,4.16,41.9,0.34414531095272677,0.0027232918407749107
14.489,0,0,0,-43.819206,172.655654,0.0,A,3,1,12,13.8,10.0,-0.061,0.994,-0.095,1.3,4.6,-0.1,101438,27.2,28.1,0,4.11,68.4,0.17207128189720144,0.0003909235893737595
14.539,0,0,0,-43.819206,172.655654,0.0,A,3,1,12,13.8,10.0,-0.063,0.994,-0.167,0.6,7.6,0.4,101438,27.5,27.7,0,4.14,46.6,0.17207128189720144,0.009898014652964804
14.589,0,0,0,-43.819206,172.655654,0.0,A,3,1,12,13.8,10.0,-0.05,0.991,-0.16,-1.0,-3.0,0.9,101438,27.5,28.0,0,4.17,40.5,0.17207128189720144,0.005077608943707457
14.639,0,0,0,-43.819206,172.655654,0.0,A,3,1,12,13.8,10.0,-0.056,0.989,-0.126,-1.8,-2.1,1.0,101438,27.0,28.0,0,4.14,46.1,0.17207128189720144,-0.0014345289366349823
14.689,0,0,0,-43.819206,172.655654,0.0,A,3,1,12,13.8,10.0,-0.052,0.991,-0.082,-2.9,-0.3,1.1,101438,27.5,28.1,0,4.14,50.8,0.17207128189720144,-0.004254550600405693
14.739,0,0,0,-43.819206,172.655654,0.0,A,3,1,12,13.8,10.0,-0.04,0.997,-0.09,-1.8,-0.7,0.7,101438,27.5,27.9,0,4.14,48.9,0.17207128189720144,0.0018527835964723405
14.789,0,0,0,-43.819206,172.655654,0.0,A,3,1,12,13.8,10.0,-0.025,1.006,-0.062,-0.1,-1.8,0.6,101438,26.7,27.9,0,4.14,48.4,0.17207128189720144,0.00821872626925546
14.839,0,0,0,-43.819206,172.655654,0.0,A,3,1,12,13.8,10.0,-0.017,0.999,-0.075,1.1,2.4,-0.2,101438,27.2,28.1,0,4.12,82.4,0.17207128189720144,0.0019555878381036784
14.889,0,0,0,-43.819206,172.655654,0.0,A,3,1,12,13.8,10.0,-0.037,0.99,-0.148,1.0,1.5,-1.2,101438,27.2,28.1,0,4.14,48.0,0.17207128189720144,0.0016850802522716535
14.953,0,0,0,-43.81921,172.655639,0.0,A,3,1,12,13.8,10.0,-0.089,0.99,-0.139,-0.5,-6.2,-0.5,101438,27.2,28.1,0,4.15,42.9,0.17207128189720144,0.003664286502214731
14.994,0,0,0,-43.81921,172.655639,0.0,A,3,1,12,13.8,10.0,-0.112,0.996,-0.09,-0.9,1.5,1.0,101439,27.2,28.1,0,4.11,71.2,0.08603529756081242,0.006310091373429527
15.042,0,0,0,-43.81921,172.655639,0.0,A,3,1,12,13.8,10.0,-0.073,0.995,-0.132,-1.5,9.5,2.1,101439,27.2,27.7,0,4.14,43.3,0.08603529756081242,0.006368719704661796
15.092,0,0,0,-43.81921,172.655639,0.0,A,3,1,12,13.8,10.0,-0.03,0.99,-0.123,-1.8,3.7,2.3,101439,27.7,27.7,0,4.16,35.0,0.08603529756081242,-0.0019373767142665255
15.142,0,0,0,-43.81921,172.655639,0.0,A,3,1,12,13.8,10.0,0.037,0.993,-0.083,-1.9,-6.5,0.9,101439,27.2,28.0,0,4.14,44.7,0.08603529756081242,-0.0028505628542931927
15.192,0,0,0,-43.81921,172.655639,0.0,A,3,1,12,13.8,10.0,-0.044,1.0,-0.063,-0.9,-5.9,-1.4,101439,27.2,27.9,0,4.14,43.3,0.08603529756081242,0.002948154193425756
15.242,0,0,0,-43.81921,172.655639,0.0,A,3,1,12,13.8,10.0,-0.087,0.995,-0.08,-0.2,-5.6,-0.9,101444,27.0,27.9,0,4.14,45.7,-0.34413432272173927,0.0019950099676144806
15.292,0,0,0,-43.81921,172.655639,0.0,A,3,1,12,13.8,10.0,-0.071,0.995,-0.114,0.8,3.4,0.2,101444,27.2,27.9,0,4.15,41.0,-0.34413432272173927,0.004022908105188572
15.342,0,0,0,-43.81921,172.655639,0.0,A,3,1,12,13.8,10.0,-0.079,0.99,-0.125,-0.6,2.4,1.5,101444,27.2,28.2,0,4.11,74.5,-0.34413432272173927,0.0009825173298483314
15.392,0,0,0,-43.81921,172.655639,0.0,A,3,1,12,13.8,10.0,-0.038,0.99,-0.135,-1.5,2.4,1.5,101444,28.0,28.2,0,4.16,43.3,-0.34413432272173927,-0.00011550667089554878
15.442,0,0,0,-43.81921,172.655639,0.0,A,3,1,12,13.8,10.0,-0.089,0.991,-0.086,-1.9,-4.0,1.1,101444,27.7,28.2,0,4.15,44.3,-0.34413432272173927,-0.0013018474033308358
15.492,0,0,0,-43.81921,172.655639,0.0,A,3,1,12,13.8,10.0,0.037,1.004,-0.075,-1.7,-1.7,0.5,101446,27.7,28.2,0,4.16,40.1,-0.5161973637397924,0.007477046884940108
15.542,0,0,0,-43.81921,172.655639,0.0,A,3,1,12,13.8,10.0,-0.034,1.001,-0.089,0.4,-1.7,-0.5,101446,27.7,28.2,0,4.14,71.7,-0.5161973637397924,0.0055237441254183395
15.592,0,0,0,-43.81921,172.655639,0.0,A,3,1,12,13.8,10.0,-0.113,0.993,-0.099,0.2,0.0,-0.9,101446,27.0,27.4,0,4.15,40.5,-0.5161973637397924,0.004300253908162688
15.642,0,0,0,-43.81921,172.655639,0.0,A,3,1,12,13.8,10.0,-0.044,0.99,-0.15,-0.3,0.0,0.2,101446,27.0,28.1,0,4.14,50.8,-0.5161973637397924,0.00226543390461198
15.692,0,0,0,-43.81921,172.655639,0.0,A,3,1,12,13.8,10.0,-0.058,0.991,-0.133,-1.7,-3.4,0.9,101446,27.2,28.1,0,4.11,79.6,-0.5161973637397924,0.0015657741756154309
15.742,0,0,0,-43.81921,172.655639,0.0,A,3,1,12,13.8,10.0,-0.065,0.989,-0.105,-2.5,-5.5,1.0,101449,27.5,28.0,0,4.16,49.4,-0.7742867751222587,-0.0033200112373079627
15.792,0,0,0,-43.81921,172.655639,0.0,A,3,1,12,13.8,10.0,-0.039,0.997,-0.072,-2.0,1.1,0.6,101449,27.5,28.1,0,4.14,47.5,-0.7742867751222587,0.0003569362982396296
15.842,0,0,0,-43.81921,172.655639,0.0,A,3,1,12,13.8,10.0,-0.035,0.999,-0.06,-0.1,-1.4,0.8,101449,27.2,28.1,0,4.11,81.0,-0.7742867751222587,0.001412003123589578
15.892,0,0,0,-43.81921,172.655639,0.0,A,3,1,12,13.8,10.0,-0.045,0.998,-0.104,0.5,2.4,-0.5,101449,27.0,27.9,0,4.14,45.2,-0.7742867751222587,0.0044127637580080314
15.955,0,0,0,-43.81921,172.655654,0.0,A,3,1,12,13.8,10.0,-0.042,0.998,-0.1,0.0,-0.5,-0.9,101444,27.0,28.2,0,4.14,42.4,-0.34413432272173927,0.0038764864264926313
15.998,0,0,0,-43.81921,172.655654,0.0,A,3,1,12,13.8,10.0,-0.083,0.984,-0.152,-0.3,-3.3,-0.2,101444,27.7,28.2,0,4.18,40.5,-0.34413432272173927,-0.0008758835860280811
16.045,0,0,0,-43.81921,172.655654,0.0,A,3,1,12,13.8,10.0,-0.074,0.993,-0.079,-1.8,-1.6,0.2,101444,26.7,28.0,0,4.12,72.2,-0.34413432272173927,-0.0011176245423087927
16.095,0,0,0,-43.81921,172.655654,0.0,A,3,1,12,13.8,10.0,-0.047,0.997,-0.12,-0.9,-0.5,1.7,101444,26.7,27.8,0,4.12,41.9,-0.34413432272173927,0.005294981585007186
16.145,0,0,0,-43.81921,172.655654,0.0,A,3,1,12,13.8,10.0,-0.048,1.0,-0.095,-0.4,7.6,1.6,101444,27.0,27.8,0,4.17,41.0,-0.34413432272173927,0.005648546958628264
16.195,0,0,0,-43.81921,172.655654,0.0,A,3,1,12,13.8,10.0,0.018,0.994,-0.07,-0.8,1.5,1.5,101444,27.2,28.2,0,4.11,71.2,-0.34413432272173927,-0.0033756976673707806
16.245,0,0,0,-43.81921,172.655654,0.0,A,3,1,12,13.8,10.0,-0.068,0.991,-0.113,1.0,0.4,-0.6,101439,27.2,27.9,0,4.14,42.4,0.08603529756081242,-0.00026303459359877657
16.295,0,0,0,-43.81921,172.655654,0.0,A,3,1,12,13.8,10.0,-0.031,0.996,-0.089,0.0,1.1,-0.6,101439,27.0,27.9,0,4.14,39.1,0.08603529756081242,0.00044889924473401344
16.345,0,0,0,-43.81921,172.655654,0.0,A,3,1,12,13.8,10.0,-0.031,0.985,-0.138,-0.9,-2.2,0.4,101439,27.5,28.2,0,4.14,41.5,0.08603529756081242,-0.004896990256787581
16.395,0,0,0,-43.81921,172.655654,0.0,A,3,1,12,13.8,10.0,-0.118,0.989,-0.151,-2.0,-2.5,1.1,101439,27.5,28.1,0,4.13,40.5,0.08603529756081242,0.007395652164530642
16.445,0,0,0,-43.81921,172.655654,0.0,A,3,1,12,13.8,10.0,-0.042,1.003,-0.098,-2.7,-3.8,1.1,101439,27.0,28.1,0,4.15,41.0,0.08603529756081242,0.008651079412499207
16.495,0,0,0,-43.81921,172.655654,0.0,A,3,1,12,13.8,10.0,-0.011,1.004,-0.031,-1.2,0.9,0.9,101439,27.7,28.2,0,4.14,39.1,0.08603529756081242,0.004538700100698012
16.545,0,0,0,-43.81921,172.655654,0.0,A,3,1,12,13.8,10.0,-0.032,0.996,-0.086,0.1,1.6,0.1,101439,27.7,28.0,0,4.11,73.1,0.08603529756081242,0.0002179762431786525
16.595,0,0,0,-43.81921,172.655654,0.0,A,3,1,12,13.8,10.0,-0.035,0.98,-0.126,0.9,2.1,-0.9,101439,27.0,28.0,0,4.11,68.0,0.08603529756081242,-0.011313497614132473
16.645,0,0,0,-43.81921,172.655654,0.0,A,3,1,12,13.8,10.0,-0.046,0.997,-0.091,-0.1,-6.6,-0.5,101439,27.2,27.9,0,4.14,48.9,0.08603529756081242,0.0022005787266339283
16.695,0,0,0,-43.81921,172.655654,0.0,A,3,1,12,13.8,10.0,-0.083,0.998,-0.104,-0.7,-1.5,-0.1,101445,27.2,28.2,0,4.14,45.2,-0.43016618658799904,0.006831167574782526
16.745,0,0,0,-43.81921,172.655654,0.0,A,3,1,12,13.8,10.0,-0.098,0.988,-0.109,-1.3,5.8,1.2,101445,27.5,28.2,0,4.14,48.4,-0.43016618658799904,-0.0011862035394184511
16.795,0,0,0,-43.81921,172.655654,0.0,A,3,1,12,13.8,10.0,-0.052,0.991,-0.142,-1.0,4.0,2.5,101445,26.5,27.3,0,4.14,47.5,-0.43016618658799904,0.002471445977390463
16.845,0,0,0,-43.81921,172.655654,0.0,A,3,1,12,13.8,10.0,-0.003,0.998,-0.064,-1.7,2.8,1.4,101445,26.5,28.1,0,4.14,48.4,-0.43016618658799904,5.449851495598068e-05
16.895,0,0,0,-43.81921,172.655654,0.0,A,3,1,12,13.8,10.0,0.006,1.001,-0.09,-0.5,-4.2,0.1,101445,27.7,27.8,0,4.12,76.4,-0.43016618658799904,0.005055719848406914
16.958,0,0,0,-43.81921,172.655654,0.0,A,3,1,12,13.7,10.0,-0.056,0.993,-0.11,0.4,2.1,-1.2,101441,27.5,27.8,0,4.15,43.3,-0.08603461079542087,0.0006422937293826259
17.0,0,0,0,-43.81921,172.655654,0.0,A,3,1,12,13.7,10.0,-0.076,0.99,-0.128,0.0,-5.8,0.2,101441,27.5,28.2,0,4.16,41.5,-0.08603461079542087,0.0011293622704309225
17.048,0,0,0,-43.81921,172.655654,0.0,A,3,1,12,13.7,10.0,-0.086,0.998,-0.108,-0.9,2.1,0.4,101441,27.5,27.8,0,4.11,72.6,-0.08603461079542087,0.007503846146504678
17.098,0,0,0,-43.81921,172.655654,0.0,A,3,1,12,13.7,10.0,-0.092,0.993,-0.114,-1.5,0.7,1.3,101441,27.0,27.8,0,4.15,41.5,-0.08603461079542087,0.00374747820355692
17.148,0,0,0,-43.81921,172.655654,0.0,A,3,1,12,13.7,10.0,-0.05,1.001,-0.125,-1.4,-1.2,1.5,101441,27.0,28.0,0,4.13,72.6,-0.08603461079542087,0.010012871205114626
17.198,0,0,0,-43.81921,172.655654,0.0,A,3,1,12,13.7,10.0,0.001,0.999,-0.021,-2.0,-0.7,1.3,101436,27.0,28.3,0,4.14,38.2,0.34414531095272677,-0.0007788032672645384
17.248,0,0,0,-43.81921,172.655654,0.0,A,3,1,12,13.7,10.0,-0.073,0.985,-0.071,-0.2,-3.0,-0.8,101436,27.2,28.3,0,4.11,74.0,0.34414531095272677,-0.009750031557687944
17.298,0,0,0,-43.81921,172.655654,0.0,A,3,1,12,13.7,10.0,-0.114,0.999,-0.087,-0.4,3.9,0.2,101436,27.2,28.2,0,4.15,40.5,0.34414531095272677,0.009240308350791038
17.348,0,0,0,-43.81921,172.655654,0.0,A,3,1,12,13.7,10.0,-0.012,0.993,-0.174,0.2,1.0,1.6,101436,27.2,28.1,0,4.15,43.3,0.34414531095272677,0.00820087284231219
17.398,0,0,0,-43.81921,172.655654,0.0,A,3,1,12,13.7,10.0,-0.025,1.011,-0.101,-0.4,5.1,0.2,101436,27.0,28.1,0,4.11,69.8,0.34414531095272677,0.01634000216462983
17.448,0,0,0,-43.81921,172.655654,0.0,A,3,1,12,13.7,10.0,-0.07,0.99,-0.077,-0.4,-4.1,0.1,101435,27.0,27.9,0,4.15,42.9,0.43018335569223315,-0.004545832295629992
17.498,0,0,0,-43.81921,172.655654,0.0,A,3,1,12,13.7,10.0,-0.069,0.983,-0.106,-0.9,0.7,0.4,101435,27.2,28.4,0,4.16,38.7,0.43018335569223315,-0.008896574519086875
17.548,0,0,0,-43.81921,172.655654,0.0,A,3,1,12,13.7,10.0,-0.093,0.99,-0.113,-1.2,1.2,1.3,101435,27.2,28.4,0,4.14,40.5,0.43018335569223315,0.0007587121779155659
17.598,0,0,0,-43.81921,172.655654,0.0,A,3,1,12,13.7,10.0,0.006,1.001,-0.107,-1.0,2.0,0.9,101435,27.2,28.3,0,4.14,39.6,0.43018335569223315,0.0067204179910129724
17.648,0,0,0,-43.81921,172.655654,0.0,A,3,1,12,13.7,10.0,-0.05,1.007,-0.098,-0.6,-4.8,0.2,101435,27.5,27.8,0,4.11,75.4,0.43018335569223315,0.012992102634566294
17.698,0,0,0,-43.81921,172.655654,0.0,A,3,1,12,13.7,10.0,-0.046,0.986,-0.121,-0.9,-3.3,-0.4,101438,27.0,27.8,0,4.15,44.3,0.17207128189720144,-0.005538839370787696
17.748,0,0,0,-43.81921,172.655654,0.0,A,3,1,12,13.7,10.0,-0.088,0.998,-0.072,0.0,0.5,-0.2,101438,27.0,27.9,0,4.1,78.7,0.17207128189720144,0.004456071712446885
17.798,0,0,0,-43.81921,172.655654,0.0,A,3,1,12,13.7,10.0,-0.04,0.998,-0.072,0.1,1.3,0.5,101438,27.0,28.2,0,4.15,47.5,0.17207128189720144,0.0013930297340800646
17.848,0,0,0,-43.81921,172.655654,0.0,A,3,1,12,13.7,10.0,-0.042,0.991,-0.14,-0.2,5.0,0.6,101438,27.5,28.2,0,4.14,49.4,0.17207128189720144,0.0017210190467202846
17.898,0,0,0,-43.81921,172.655654,0.0,A,3,1,12,13.7,10.0,-0.084,0.994,-0.134,-0.6,3.0,0.7,101438,27.5,28.0,0,4.15,44.3,0.17207128189720144,0.006502856429130954
17.962,0,0,0,-43.819206,172.655654,0.0,A,3,1,12,13.8,10.0,-0.035,0.991,-0.131,-1.2,-5.3,0.4,101435,27.0,27.8,0,4.14,42.4,0.43018335569223315,0.0002334727452386609
18.002,0,0,0,-43.819206,172.655654,0.0,A,3,1,12,13.8,10.0,-0.062,1.007,-0.059,-1.6,-6.2,-0.3,101435,26.7,27.8,0,4.15,40.5,0.43018335569223315,0.010630496274478984
18.051,0,0,0,-43.819206,172.655654,0.0,A,3,1,12,13.8,10.0,-0.079,0.989,-0.093,-1.2,-1.0,-0.2,101435,27.2,28.1,0,4.15,41.0,0.43018335569223315,-0.003500627195380468
18.101,0,0,0,-43.819206,172.655654,0.0,A,3,1,12,13.8,10.0,-0.034,0.998,-0.082,0.4,0.3,0.4,101435,27.2,27.9,0,4.12,69.4,0.43018335569223315,0.0019401179711291405
18.151,0,0,0,-43.819206,172.655654,0.0,A,3,1,12,13.8,10.0,-0.064,1.0,-0.116,0.2,6.6,0.4,101435,27.0,27.9,0,4.14,43.3,0.43018335569223315,0.0087378252053405
18.201,0,0,0,-43.819206,172.655654,0.0,A,3,1,12,13.8,10.0,-0.044,0.993,-0.132,-0.3,-0.8,0.5,101439,27.0,28.1,0,4.14,43.3,0.08603529756081242,0.0027008526973535396
18.251,0,0,0,-43.819206,172.655654,0.0,A,3,1,12,13.8,10.0,-0.059,0.998,-0.114,-1.5,-4.6,0.0,101439,27.2,28.0,0,4.12,71.2,0.08603529756081242,0.006221148654707909
18.301,0,0,0,-43.819206,172.655654,0.0,A,3,1,12,13.8,10.0,-0.072,0.991,-0.101,-1.5,-1.2,0.3,101439,27.0,28.0,0,4.16,39.6,0.08603529756081242,-0.0012678036630640044
18.351,0,0,0,-43.819206,172.655654,0.0,A,3,1,12,13.8,10.0,-0.058,0.997,-0.083,-0.9,-2.3,1.0,101439,27.0,28.1,0,4.14,43.3,0.08603529756081242,0.002128734245256503
18.401,0,0,0,-43.819206,172.655654,0.0,A,3,1,12,13.8,10.0,-0.057,0.995,-0.07,-0.6,1.2,0.7,101439,27.0,28.2,0,4.16,41.5,0.08603529756081242,-0.0009134171654591183
18.451,0,0,0,-43.819206,172.655654,0.0,A,3,1,12,13.8,10.0,-0.035,0.992,-0.105,-0.2,6.5,0.1,101437,27.5,28.2,0,4.12,70.8,0.25810795302444456,-0.001844701461741538
18.501,0,0,0,-43.819206,172.655654,0.0,A,3,1,12,13.8,10.0,-0.058,0.99,-0.149,-0.6,-4.9,-0.2,101437,26.7,27.8,0,4.16,39.6,0.25810795302444456,0.0028284997944563184
18.551,0,0,0,-43.819206,172.655654,0.0,A,3,1,12,13.8,10.0,-0.065,0.992,-0.107,-1.5,-10.9,0.1,101437,26.7,28.1,0,4.15,43.3,0.25810795302444456,-0.00013100858162418128
18.601,0,0,0,-43.819206,172.655654,0.0,A,3,1,12,13.8,10.0,-0.055,1.002,-0.079,-1.2,0.7,0.2,101437,27.2,28.1,0,4.11,71.2,0.25810795302444456,0.006613133234411928
18.651,0,0,0,-43.819206,172.655654,0.0,A,3,1,12,13.8,10.0,-0.099,0.992,-0.077,-0.5,3.4,0.9,101437,27.7,28.2,0,4.15,49.8,0.25810795302444456,-0.00010300530504647742
18.701,0,0,0,-43.819206,172.655654,0.0,A,3,1,12,13.8,10.0,-0.061,0.993,-0.098,0.1,1.6,1.5,101438,27.7,28.1,0,4.11,72.6,0.17207128189720144,-0.0003130489998381947
18.751,0,0,0,-43.819206,172.655654,0.0,A,3,1,12,13.8,10.0,-0.036,0.991,-0.125,-0.4,5.9,0.2,101438,27.0,28.1,0,4.14,47.5,0.17207128189720144,-0.0004991245626645435
18.801,0,0,0,-43.819206,172.655654,0.0,A,3,1,12,13.8,10.0,-0.032,0.996,-0.115,-0.8,0.0,-0.1,101438,27.5,28.2,0,4.14,45.7,0.17207128189720144,0.003127609030874945
18.851,0,0,0,-43.819206,172.655654,0.0,A,3,1,12,13.8,10.0,-0.056,0.997,-0.112,-1.0,-9.1,0.0,101438,27.5,28.2,0,4.14,48.4,0.17207128189720144,0.004832821916163299
18.902,0,0,0,-43.819206,172.655654,0.0,A,3,1,12,13.8,10.0,-0.067,0.99,-0.087,-1.6,-5.0,0.2,101437,27.2,28.2,0,4.14,46.6,0.25810795302444456,-0.003928717410244809
18.965,0,0,0,-43.819206,172.655654,0.0,A,3,1,12,13.8,10.0,-0.076,0.994,-0.109,0.2,7.4,1.2,101437,27.0,27.9,0,4.14,43.8,0.25810795302444456,0.002842460209977249
19.004,0,0,0,-43.819206,172.655654,0.0,A,3,1,12,13.8,10.0,-0.054,0.993,-0.099,-0.2,5.9,1.2,101437,27.0,28.4,0,4.16,41.0,0.25810795302444456,-0.0006171904620332347
19.053,0,0,0,-43.819206,172.655654,0.0,A,3,1,12,13.8,10.0,-0.026,0.984,-0.144,-1.0,-0.2,1.0,101437,27.5,28.4,0,4.14,42.9,0.25810795302444456,-0.005179413160342761
19.103,0,0,0,-43.819206,172.655654,0.0,A,3,1,12,13.8,10.0,0.003,0.992,-0.177,-1.8,-3.6,0.8,101437,27.2,28.2,0,4.15,41.5,0.25810795302444456,0.007671573480169114
19.153,0,0,0,-43.819206,172.655654,0.0,A,3,1,12,13.8,10.0,-0.066,0.997,-0.104,-2.6,-3.3,0.0,101434,27.2,27.9,0,4.15,41.0,0.5162220872582411,0.004580011746202484
19.203,0,0,0,-43.819206,172.655654,0.0,A,3,1,12,13.8,10.0,-0.064,1.009,-0.078,-1.6,-7.5,0.4,101434,26.7,27.9,0,4.15,41.0,0.5162220872582411,0.014032050775516502
19.253,0,0,0,-43.819206,172.655654,0.0,A,3,1,12,13.8,10.0,-0.066,0.99,-0.041,-1.2,3.1,-0.9,101434,27.0,28.1,0,4.12,74.0,0.5162220872582411,-0.006955690817373461
19.303,0,0,0,-43.819206,172.655654,0.0,A,3,1,12,13.8,10.0,-0.064,0.991,-0.061,0.1,-1.3,-0.6,101434,27.0,28.3,0,4.12,70.3,0.5162220872582411,-0.005063821142280545
19.353,0,0,0,-43.819206,172.655654,0.0,A,3,1,12,13.8,10.0,-0.087,0.989,-0.149,-0.5,1.4,0.2,101434,27.2,28.3,0,4.15,41.5,0.5162220872582411,0.003937747073990749
19.403,0,0,0,-43.819206,172.655654,0.0,A,3,1,12,13.8,10.0,-0.115,1.001,-0.185,1.2,0.9,1.8,101432,27.2,28.1,0,4.14,39.6,0.6883016109155947,0.024427157000437738
19.453,0,0,0,-43.819206,172.655654,0.0,A,3,1,12,13.8,10.0,0.053,1.017,-0.113,-0.5,10.9,1.7,101432,27.2,28.2,0,4.13,71.7,0.6883016109155947,0.024630177185895663
19.503,0,0,0,-43.819206,172.655654,0.0,A,3,1,12,13.8,10.0,-0.062,0.997,-0.155,-2.1,-1.2,1.9,101432,27.2,28.2,0,4.16,37.7,0.6883016109155947,0.010879814814797939
19.553,0,0,0,-43.819206,172.655654,0.0,A,3,1,12,13.8,10.0,0.028,0.998,-0.122,-2.1,-11.8,0.2,101432,27.0,27.9,0,4.14,41.9,0.6883016109155947,0.005819069216725481
19.603,0,0,0,-43.819206,172.655654,0.0,A,3,1,12,13.8,10.0,-0.057,0.997,-0.121,-2.8,-2.4,-1.6,101432,27.0,28.2,0,4.14,39.1,0.6883016109155947,0.005931906244155183
19.653,0,0,0,-43.819206,172.655654,0.0,A,3,1,12,13.8,10.0,-0.178,1.033,-0.049,-5.8,-26.2,-4.5,101431,27.2,28.2,0,4.11,77.3,0.7743424030324028,0.049368381456197596
19.703,0,0,0,-43.819206,172.655654,0.0,A,3,1,12,13.8,10.0,-0.001,0.991,-0.038,1.9,-28.2,2.8,101431,26.7,27.8,0,4.14,45.7,0.7743424030324028,-0.008271206427886368
19.753,0,0,0,-43.819206,172.655654,0.0,A,3,1,12,13.8,10.0,-0.068,0.988,0.006,-0.4,30.1,-1.1,101431,26.7,28.2,0,4.11,74.5,0.7743424030324028,-0.009644508269883945
19.803,0,0,0,-43.819206,172.655654,0.0,A,3,1,12,13.8,10.0,-0.105,0.989,-0.053,1.5,29.3,1.6,101431,27.2,28.2,0,4.11,76.8,0.7743424030324028,-0.00403062296072576
19.853,0,0,0,-43.819206,172.655654,0.0,A,3,1,12,13.8,10.0,-0.17,0.993,-0.189,2.5,-12.3,5.6,101431,26.5,27.4,0,4.15,48.9,0.7743424030324028,0.025021950984465358
19.904,0,0,0,-43.819206,172.655654,0.0,A,3,1,12,13.8,10.0,-0.087,0.987,-0.082,0.6,17.3,-0.7,101433,26.5,28.4,0,4.15,36.8,0.6022615056609358,-0.005785737378506517
19.967,0,0,0,-43.819206,172.655654,0.0,A,3,1,12,13.7,10.0,0.003,0.993,-0.14,-1.0,-18.9,-1.3,101433,27.5,28.2,0,4.14,41.9,0.6022615056609358,0.0028250096602098207
20.006,0,0,0,-43.819206,172.655654,0.0,A,3,1,12,13.7,10.0,-0.034,0.994,-0.111,-3.2,-22.6,-1.9,101433,27.2,28.2,0,4.11,68.9,0.6022615056609358,0.0007562140701400377
20.055,0,0,0,-43.819206,172.655654,0.0,A,3,1,12,13.7,10.0,-0.097,1.011,-0.065,-2.7,-0.5,-2.7,101433,27.2,28.1,0,4.15,43.3,0.6022615056609358,0.01772049208021742
20.105,0,0,0,-43.819206,172.655654,0.0,A,3,1,12,13.7,10.0,-0.172,1.011,-0.03,-4.6,-15.3,-2.5,101433,27.0,28.1,0,4.15,41.0,0.6022615056609358,0.02596539902669215
20.155,0,0,0,-43.819206,172.655654,0.0,A,3,1,12,13.7,10.0,-0.009,0.982,-0.098,1.5,0.9,3.4,101432,27.0,28.1,0,4.11,73.1,0.6883016109155947,-0.013081057026464893
20.205,0,0,0,-43.819206,172.655654,0.0,A,3,1,12,13.7,10.0,0.003,0.99,-0.09,-0.7,23.5,1.1,101432,27.0,28.2,0,4.15,37.7,0.6883016109155947,-0.0059129816761512854
20.255,0,0,0,-43.819206,172.655654,0.0,A,3,1,12,13.7,10.0,-0.062,0.984,-0.138,-0.3,0.0,1.4,101432,27.2,28.2,0,4.14,41.9,0.6883016109155947,-0.004437847244080917
20.305,0,0,0,-43.819206,172.655654,0.0,A,3,1,12,13.7,10.0,-0.058,0.997,-0.117,-0.2,-8.7,1.6,101432,27.0,28.0,0,4.11,69.8,0.6883016109155947,0.005515788041142722
20.355,0,0,0,-43.819206,172.655654,0.0,A,3,1,12,13.7,10.0,-0.02,0.99,-0.074,0.1,1.7,1.7,101432,27.0,27.9,0,4.14,42.9,0.6883016109155947,-0.007036757981444763
20.405,0,0,0,-43.819206,172.655654,0.0,A,3,1,12,13.7,10.0,-0.122,1.001,-0.062,-0.5,4.5,1.4,101438,26.7,27.9,0,4.15,38.2,0.17207128189720144,0.010311338152749538
20.455,0,0,0,-43.819206,172.655654,0.0,A,3,1,12,13.7,10.0,0.048,1.008,-0.079,1.1,6.4,1.3,101438,27.0,27.9,0,4.15,42.9,0.17207128189720144,0.012229717010916463
20.505,0,0,0,-43.819206,172.655654,0.0,A,3,1,12,13.7,10.0,-0.072,0.994,-0.158,-0.2,-2.4,0.3,101438,27.0,27.9,0,4.12,69.4,0.17207128189720144,0.009051039343402012
20.555,0,0,0,-43.819206,172.655654,0.0,A,3,1,12,13.7,10.0,-0.039,0.997,-0.115,-2.1,-1.5,-1.0,101438,27.0,27.9,0,4.15,44.3,0.17207128189720144,0.004367960460706977
20.605,0,0,0,-43.819206,172.655654,0.0,A,3,1,12,13.7,10.0,-0.026,0.988,-0.117,-2.4,-9.3,-0.8,101438,27.0,27.9,0,4.14,44.7,0.17207128189720144,-0.004756813637993296
20.655,0,0,0,-43.819206,172.655654,0.0,A,3,1,12,13.7,10.0,-0.043,0.997,-0.085,-3.6,-5.5,-2.2,101428,27.0,28.2,0,4.1,79.6,1.03246890067285,0.0015403137168268355
20.705,0,0,0,-43.819206,172.655654,0.0,A,3,1,12,13.7,10.0,-0.038,0.974,-0.077,-0.5,-23.6,1.0,101428,27.2,28.2,0,4.15,46.6,1.03246890067285,-0.022222417929312566
20.755,0,0,0,-43.819206,172.655654,0.0,A,3,1,12,13.7,10.0,-0.238,1.019,0.052,-0.1,15.1,2.3,101428,27.0,28.1,0,4.14,48.0,1.03246890067285,0.047716087496989745
20.805,0,0,0,-43.819206,172.655654,0.0,A,3,1,12,13.7,10.0,-0.089,1.009,-0.103,-1.2,19.2,-0.7,101428,27.0,28.4,0,4.11,75.4,1.03246890067285,0.018140952913691555
20.855,0,0,0,-43.819206,172.655654,0.0,A,3,1,12,13.7,10.0,-0.001,0.989,-0.13,1.6,-4.2,1.2,101428,27.7,28.4,0,4.14,47.1,1.03246890067285,-0.0024921052943991384
20.918,0,0,0,-43.819206,172.655654,0.0,A,3,1,12,13.7,10.0,0.034,1.0,-0.111,-0.9,-9.9,-0.1,101425,26.5,27.7,0,4.14,42.9,1.2906015805207807,0.006715948021088991
20.961,0,0,0,-43.819206,172.655654,0.0,A,3,1,12,13.7,10.0,-0.175,0.988,-0.105,-2.5,-6.0,-0.7,101425,26.5,27.8,0,4.14,45.2,1.2906015805207807,0.008857769955705974
21.009,0,0,0,-43.819206,172.655654,0.0,A,3,1,12,13.7,10.0,-0.107,0.996,-0.074,-1.5,-5.9,0.7,101425,27.0,27.8,0,4.11,71.2,1.2906015805207807,0.004460551739091434
21.059,0,0,0,-43.819206,172.655654,0.0,A,3,1,12,13.7,10.0,-0.087,0.998,-0.034,-0.4,7.0,2.1,101425,27.0,27.8,0,4.14,44.3,1.2906015805207807,0.002361711160197899
21.109,0,0,0,-43.819206,172.655654,0.0,A,3,1,12,13.7,10.0,-0.068,0.997,-0.056,0.0,12.7,1.6,101426,27.0,28.4,0,4.15,41.5,1.204556666976452,0.0008841091754827612
21.159,0,0,0,-43.819206,172.655654,0.0,A,3,1,12,13.7,10.0,-0.121,1.006,-0.068,1.5,-5.4,2.5,101426,27.5,28.1,0,4.18,45.2,1.204556666976452,0.015529910933203217
21.209,0,0,0,-43.819206,172.655654,0.0,A,3,1,12,13.7,10.0,-0.112,0.977,-0.127,-1.0,-3.5,-1.4,101426,27.0,28.1,0,4.14,39.1,1.204556666976452,-0.00843457099392586
21.259,0,0,0,-43.819206,172.655654,0.0,A,3,1,12,13.7,10.0,-0.003,1.001,-0.146,-1.2,-8.2,-0.2,101426,27.0,28.1,0,4.14,42.4,1.204556666976452,0.011595769069839168
21.309,0,0,0,-43.819206,172.655654,0.0,A,3,1,12,13.7,10.0,-0.04,0.994,-0.104,-2.5,-3.0,-2.6,101426,27.2,28.2,0,4.14,41.5,1.204556666976452,0.00022597446776995156
21.359,0,0,0,-43.819206,172.655654,0.0,A,3,1,12,13.7,10.0,-0.04,0.969,-0.162,-2.8,-12.0,-0.2,101428,27.0,28.2,0,4.11,74.0,1.03246890067285,-0.016737573177943443
21.409,0,0,0,-43.819206,172.655654,0.0,A,3,1,12,13.7,10.0,-0.109,1.0,-0.047,-1.2,2.8,2.3,101428,27.0,28.1,0,4.15,38.7,1.03246890067285,0.007020357291747992
21.459,0,0,0,-43.819206,172.655654,0.0,A,3,1,12,13.7,10.0,-0.102,1.0,-0.007,-0.5,10.0,0.6,101428,27.0,28.1,0,4.14,44.7,1.03246890067285,0.005212912770224953
21.509,0,0,0,-43.819206,172.655654,0.0,A,3,1,12,13.7,10.0,-0.009,0.986,-0.105,0.7,14.2,0.9,101428,27.0,28.1,0,4.12,73.1,1.03246890067285,-0.008384146960124572
21.559,0,0,0,-43.819206,172.655654,0.0,A,3,1,12,13.7,10.0,-0.011,0.975,-0.129,-0.4,1.5,1.3,101428,27.0,27.9,0,4.16,43.8,1.03246890067285,-0.016441664160178004
21.609,0,0,0,-43.819206,172.655654,0.0,A,3,1,12,13.7,10.0,-0.052,1.003,-0.114,-0.4,-15.4,0.4,101422,26.7,28.3,0,4.14,49.4,1.5487404429021154,0.010796220808130919
21.659,0,0,0,-43.819206,172.655654,0.0,A,3,1,12,13.7,10.0,-0.074,1.007,-0.11,-1.3,0.9,-1.8,101422,27.2,28.3,0,4.14,51.2,1.5487404429021154,0.01568942103381188
21.709,0,0,0,-43.819206,172.655654,0.0,A,3,1,12,13.7,10.0,-0.167,0.998,-0.018,-3.4,-8.9,-1.3,101422,27.2,28.1,0,4.12,80.5,1.5487404429021154,0.012036066550989988
21.759,0,0,0,-43.819206,172.655654,0.0,A,3,1,12,13.7,10.0,-0.05,0.987,-0.063,0.0,-7.3,2.7,101422,27.0,28.2,0,4.15,49.8,1.5487404429021154,-0.009728320106042854
21.809,0,0,0,-43.819206,172.655654,0.0,A,3,1,12,13.7,10.0,-0.055,0.998,-0.063,-1.0,19.0,-0.4,101422,27.2,28.2,0,4.14,48.0,1.5487404429021154,0.001497878180478196
21.859,0,0,0,-43.819206,172.655654,0.0,A,3,1,12,13.7,10.0,-0.044,0.997,-0.076,1.2,4.5,1.5,101421,27.2,28.1,0,4.11,75.9,1.6347881043126267,0.0008601300881156959
21.923,0,0,0,-43.81921,172.655654,0.0,A,3,1,12,13.7,10.0,0.006,0.988,-0.08,1.6,-3.0,0.9,101421,27.0,27.7,0,4.15,41.5,1.6347881043126267,-0.008748266079700584
21.963,0,0,0,-43.81921,172.655654,0.0,A,3,1,12,13.7,10.0,-0.038,1.0,-0.108,0.4,6.7,0.7,101421,26.7,27.7,0,4.14,45.7,1.6347881043126267,0.006532662162535008
22.012,0,0,0,-43.81921,172.655654,0.0,A,3,1,12,13.7,10.0,-0.138,0.991,-0.082,1.2,9.1,0.9,101421,26.7,28.2,0,4.17,41.9,1.6347881043126267,0.003916829224413387
22.062,0,0,0,-43.81921,172.655654,0.0,A,3,1,12,13.7,10.0,-0.045,0.996,-0.155,-0.9,-5.1,0.8,101421,27.0,27.7,0,4.15,42.4,1.6347881043126267,0.008992566870539509
22.112,0,0,0,-43.81921,172.655654,0.0,A,3,1,12,13.7,10.0,-0.021,0.994,-0.11,-2.0,-4.6,0.9,101432,26.5,27.7,0,4.15,41.5,0.6883016109155947,0.00028845839587687827
22.162,0,0,0,-43.81921,172.655654,0.0,A,3,1,12,13.7,10.0,-0.075,0.987,-0.106,-2.0,-3.3,0.8,101432,26.5,28.1,0,4.14,43.3,0.6883016109155947,-0.0044951029753796945
22.212,0,0,0,-43.81921,172.655654,0.0,A,3,1,12,13.7,10.0,-0.029,0.997,-0.068,-1.8,-3.5,0.4,101432,27.0,27.6,0,4.12,71.2,0.6883016109155947,-0.00026303459359877657
22.262,0,0,0,-43.81921,172.655654,0.0,A,3,1,12,13.7,10.0,-0.039,0.999,-0.078,-1.5,0.0,-0.2,101432,26.5,27.6,0,4.14,43.3,0.6883016109155947,0.0027990825683876785
22.312,0,0,0,-43.81921,172.655654,0.0,A,3,1,12,13.7,10.0,-0.079,0.997,-0.06,-0.8,-2.9,-0.9,101432,26.5,28.1,0,4.14,41.5,0.6883016109155947,0.0019231507456050068
22.362,0,0,0,-43.81921,172.655654,0.0,A,3,1,12,13.7,10.0,-0.114,0.994,-0.053,0.5,-6.0,-0.2,101432,27.0,28.3,0,4.15,44.7,0.6883016109155947,0.0019186593731050916
22.412,0,0,0,-43.81921,172.655654,0.0,A,3,1,12,13.7,10.0,-0.145,0.984,-0.086,-0.4,3.6,-0.2,101432,27.5,28.3,0,4.14,71.7,0.6883016109155947,-0.0016628825892528454
22.462,0,0,0,-43.81921,172.655654,0.0,A,3,1,12,13.7,10.0,-0.08,0.998,-0.104,1.6,-5.0,3.0,101432,27.5,27.9,0,4.15,46.6,0.6883016109155947,0.006588297170198487
22.512,0,0,0,-43.81921,172.655654,0.0,A,3,1,12,13.7,10.0,0.042,0.992,-0.115,-1.5,15.1,-0.2,101432,27.0,28.2,0,4.15,42.4,0.6883016109155947,-0.00047361215423635805
22.562,0,0,0,-43.81921,172.655654,0.0,A,3,1,12,13.7,10.0,-0.041,1.005,-0.16,0.5,5.8,1.8,101432,27.2,28.2,0,4.11,75.4,0.6883016109155947,0.018482204066423424
22.612,0,0,0,-43.81921,172.655654,0.0,A,3,1,12,13.7,10.0,-0.058,0.997,-0.104,-1.5,-0.5,-0.7,101431,27.2,27.9,0,4.14,45.7,0.7743424030324028,0.0040861516822150445
22.662,0,0,0,-43.81921,172.655654,0.0,A,3,1,12,13.7,10.0,-0.05,0.992,-0.1,-0.5,-11.6,-0.5,101431,26.5,28.2,0,4.14,46.6,0.7743424030324028,-0.0017194783028169347
22.712,0,0,0,-43.81921,172.655654,0.0,A,3,1,12,13.7,10.0,-0.049,0.993,-0.05,0.1,-2.1,-0.4,101431,27.0,28.2,0,4.11,76.8,0.7743424030324028,-0.004535284402304995
22.762,0,0,0,-43.81921,172.655654,0.0,A,3,1,12,13.7,10.0,-0.064,0.995,-0.061,0.2,4.8,0.2,101431,27.0,27.7,0,4.14,49.8,0.7743424030324028,-0.0010795827494564092
22.812,0,0,0,-43.81921,172.655654,0.0,A,3,1,12,13.7,10.0,-0.068,0.991,-0.119,0.2,8.0,0.7,101431,26.5,28.1,0,4.14,44.7,0.7743424030324028,0.0004329062960695129
22.862,0,0,0,-43.81921,172.655654,0.0,A,3,1,12,13.7,10.0,-0.046,0.989,-0.171,-0.9,3.8,0.4,101431,27.0,28.1,0,4.14,49.4,0.7743424030324028,0.004727823840865009
22.926,0,0,0,-43.81921,172.655654,0.0,A,3,1,12,13.7,10.0,-0.052,0.993,-0.073,-2.8,-15.6,0.4,101431,27.2,28.4,0,4.17,34.0,0.7743424030324028,-0.0029633908426430766
22.967,0,0,0,-43.81921,172.655654,0.0,A,3,1,12,13.7,10.0,-0.033,0.999,-0.092,-2.3,-2.7,0.1,101431,27.2,27.9,0,4.11,72.6,0.7743424030324028,0.0037698939498036488
23.015,0,0,0,-43.81921,172.655654,0.0,A,3,1,12,13.7,10.0,-0.106,0.997,-0.033,-0.8,1.3,0.2,101431,26.7,27.9,0,4.15,40.5,0.7743424030324028,0.0031620008752324402
23.065,0,0,0,-43.81921,172.655654,0.0,A,3,1,12,13.7,10.0,-0.038,0.99,-0.093,1.2,6.8,2.1,101431,27.2,28.4,0,4.11,74.0,0.7743424030324028,-0.004915581470597008
23.115,0,0,0,-43.81921,172.655654,0.0,A,3,1,12,13.7,10.0,-0.046,0.988,-0.082,0.4,7.9,-1.2,101436,27.2,28.4,0,4.16,38.7,0.34414531095272677,-0.007536398652323362
23.165,0,0,0,-43.81921,172.655654,0.0,A,3,1,12,13.7,10.0,-0.066,1.016,-0.392,1.3,-10.5,-1.0,101436,27.2,28.4,0,4.16,41.5,0.34414531095272677,0.09099770852188316
23.215,0,0,0,-43.81921,172.655654,0.0,A,3,1,12,13.7,10.0,-0.001,0.996,-0.037,-1.2,-3.4,-0.4,101436,27.0,28.3,0,4.15,39.1,0.34414531095272677,-0.003312486282686544
23.265,0,0,0,-43.81921,172.655654,0.0,A,3,1,12,13.7,10.0,-0.155,0.982,-0.124,-1.8,-0.4,1.3,101436,27.0,27.8,0,4.14,42.9,0.34414531095272677,0.0018607687697926867
23.315,0,0,0,-43.81921,172.655654,0.0,A,3,1,12,13.7,10.0,-0.101,0.997,-0.118,-1.5,2.0,2.0,101436,26.7,27.8,0,4.14,39.1,0.34414531095272677,0.009026263285550007
23.365,0,0,0,-43.81921,172.655654,0.0,A,3,1,12,13.7,10.0,0.062,1.014,-0.029,-0.4,11.7,2.8,101433,27.0,28.1,0,4.15,41.9,0.6022615056609358,0.016307532196824903
23.415,0,0,0,-43.81921,172.655654,0.0,A,3,1,12,13.7,10.0,-0.022,0.995,-0.111,1.8,10.1,-0.8,101433,27.0,28.2,0,4.12,72.2,0.6022615056609358,0.0014140003015736813
23.465,0,0,0,-43.81921,172.655654,0.0,A,3,1,12,13.7,10.0,-0.075,0.983,-0.159,1.0,-1.4,-0.4,101433,27.0,28.2,0,4.11,67.1,0.6022615056609358,-0.0014034848849111548
23.515,0,0,0,-43.81921,172.655654,0.0,A,3,1,12,13.7,10.0,-0.06,0.989,-0.137,0.4,-4.6,0.1,101433,27.0,27.9,0,4.16,39.1,0.6022615056609358,0.0002449699948507966
23.565,0,0,0,-43.81921,172.655654,0.0,A,3,1,12,13.7,10.0,-0.048,0.998,-0.121,-0.6,10.3,0.2,101425,27.0,28.3,0,4.11,72.2,1.2906015805207807,0.006453675039243878
23.615,0,0,0,-43.81921,172.655654,0.0,A,3,1,12,13.7,10.0,-0.07,0.996,-0.136,-1.3,-1.8,1.3,101425,27.2,28.3,0,4.14,45.2,1.2906015805207807,0.007676535402109996
23.665,0,0,0,-43.81921,172.655654,0.0,A,3,1,12,13.7,10.0,-0.02,0.989,-0.095,-1.8,-9.8,1.5,101425,27.2,28.2,0,4.14,46.1,1.2906015805207807,-0.00624650944009264
23.715,0,0,0,-43.81921,172.655654,0.0,A,3,1,12,13.7,10.0,-0.022,0.998,-0.057,-1.5,2.4,0.5,101425,27.2,28.1,0,4.15,48.4,1.2906015805207807,-0.0001315086472621907
23.765,0,0,0,-43.81921,172.655654,0.0,A,3,1,12,13.7,10.0,-0.024,1.0,-0.048,-0.1,-0.5,0.2,101425,27.0,28.1,0,4.11,79.1,1.2906015805207807,0.0014389646903099074
23.815,0,0,0,-43.81921,172.655654,0.0,A,3,1,12,13.7,10.0,-0.056,0.996,-0.114,1.0,-2.2,-1.6,101427,26.5,27.9,0,4.14,46.6,1.1185124403604751,0.004065734899862061
23.865,0,0,0,-43.81921,172.655654,0.0,A,3,1,12,13.7,10.0,-0.082,0.99,-0.114,-0.2,4.8,-0.8,101427,26.5,28.4,0,4.14,46.6,1.1185124403604751,-9.000405036452275e-05
23.929,0,0,0,-43.81921,172.655654,0.0,A,3,1,12,13.6,10.0,-0.12,0.986,-0.128,-1.6,-2.6,1.6,101427,27.0,27.6,0,4.16,39.6,1.1185124403604751,0.0014888916009003772
23.969,0,0,0,-43.81921,172.655654,0.0,A,3,1,12,13.6,10.0,-0.067,0.99,-0.11,-4.0,-4.9,0.6,101427,26.2,27.6,0,4.15,43.3,1.1185124403604751,-0.0016568726134286171
24.018,0,0,0,-43.81921,172.655654,0.0,A,3,1,12,13.6,10.0,-0.044,0.999,-0.116,-2.7,-8.7,0.7,101427,26.2,27.9,0,4.11,69.8,1.1185124403604751,0.0066742273446758205
24.068,0,0,0,-43.81921,172.655654,0.0,A,3,1,12,13.6,10.0,-0.05,1.004,-0.086,-2.0,-2.0,1.1,101425,26.7,27.9,0,4.21,43.3,1.2906015805207807,0.008916250240821544
24.118,0,0,0,-43.81921,172.655654,0.0,A,3,1,12,13.6,10.0,-0.106,0.994,-0.066,-1.8,-0.5,1.5,101425,27.0,28.2,0,4.14,41.9,1.2906015805207807,0.0018123576798201313
24.168,0,0,0,-43.81921,172.655654,0.0,A,3,1,12,13.6,10.0,-0.143,1.01,-0.06,-1.0,-3.1,1.8,101425,27.0,28.2,0,4.14,42.4,1.2906015805207807,0.021836092531478446
24.218,0,0,0,-43.81921,172.655654,0.0,A,3,1,12,13.6,10.0,0.024,0.991,-0.066,1.1,4.9,0.1,101425,27.2,28.2,0,4.15,39.6,1.2906015805207807,-0.006514720793508677
24.268,0,0,0,-43.81921,172.655654,0.0,A,3,1,12,13.6,10.0,-0.063,0.996,-0.058,4.5,1.0,-2.4,101425,27.0,28.1,0,4.11,73.6,1.2906015805207807,-0.0003255529923753553
24.318,0,0,0,-43.81921,172.655654,0.0,A,3,1,12,13.6,10.0,-0.057,1.002,-0.178,-1.3,-9.4,-0.9,101432,27.0,28.2,0,4.14,40.1,0.6883016109155947,0.019282590845149272
24.368,0,0,0,-43.81921,172.655654,0.0,A,3,1,12,13.6,10.0,0.033,0.974,-0.06,-2.7,-10.1,0.1,101432,27.0,28.2,0,4.14,41.9,0.6883016109155947,-0.02359588284358405
24.418,0,0,0,-43.81921,172.655654,0.0,A,3,1,12,13.6,10.0,0.004,0.985,-0.071,-2.0,9.0,-1.3,101432,26.7,28.2,0,4.14,40.5,0.6883016109155947,-0.012436331166440717
24.468,0,0,0,-43.81921,172.655654,0.0,A,3,1,12,13.6,10.0,-0.159,0.986,-0.029,-1.7,-9.0,-2.2,101432,26.7,27.8,0,4.15,43.8,0.6883016109155947,-0.0008413539382247093
24.518,0,0,0,-43.81921,172.655654,0.0,A,3,1,12,13.6,10.0,-0.1,0.992,-0.092,-0.8,-13.1,1.2,101432,26.5,27.8,0,4.13,66.1,0.6883016109155947,0.0012632021601513
24.568,0,0,0,-43.81921,172.655654,0.0,A,3,1,12,13.6,10.0,-0.121,1.012,-0.03,-1.6,5.8,2.0,101425,26.7,27.9,0,4.14,42.9,1.2906015805207807,0.019649449565878774
24.618,0,0,0,-43.81921,172.655654,0.0,A,3,1,12,13.6,10.0,-0.049,0.996,-0.083,-1.2,14.5,1.6,101425,26.7,28.2,0,4.11,75.9,1.2906015805207807,0.0006527869346089066
24.668,0,0,0,-43.81921,172.655654,0.0,A,3,1,12,13.6,10.0,-0.032,0.997,-0.113,1.4,-9.4,3.8,101425,26.7,28.2,0,4.15,48.4,1.2906015805207807,0.003893420637868461
24.718,0,0,0,-43.81921,172.655654,0.0,A,3,1,12,13.6,10.0,-0.11,0.979,-0.005,1.2,15.8,1.0,101425,27.0,28.3,0,4.14,46.6,1.2906015805207807,-0.01482691875995712
24.768,0,0,0,-43.81921,172.655654,0.0,A,3,1,12,13.6,10.0,-0.013,1.0,-0.149,-0.9,7.6,0.2,101425,27.0,28.4,0,4.11,79.6,1.2906015805207807,0.011123137901610791
24.818,0,0,0,-43.81921,172.655654,0.0,A,3,1,12,13.6,10.0,0.007,0.995,-0.079,-0.6,-12.6,-0.4,101427,27.2,28.4,0,4.17,44.7,1.1185124403604751,-0.0018442005378117576
24.869,0,0,0,-43.81921,172.655654,0.0,A,3,1,12,13.6,10.0,-0.029,0.989,-0.095,-1.4,0.6,-1.4,101427,27.0,28.2,0,4.16,41.5,1.1185124403604751,-0.0060246481929242535
24.931,0,0,0,-43.81921,172.655654,0.0,A,3,1,12,13.6,10.0,-0.244,0.971,-0.188,-0.3,-5.5,-1.3,101427,27.0,27.9,0,4.14,41.0,1.1185124403604751,0.018685918229951692
24.971,0,0,0,-43.81921,172.655654,0.0,A,3,1,12,13.6,10.0,-0.048,0.994,-0.061,-0.7,-1.5,0.6,101427,27.0,27.9,0,4.11,72.2,1.1185124403604751,-0.002973922106347282
25.02,0,0,0,-43.81921,172.655654,0.0,A,3,1,12,13.6,10.0,-0.069,1.0,-0.096,0.1,9.6,0.4,101427,27.2,28.2,0,4.15,41.9,1.1185124403604751,0.006964249613659268
25.07,0,0,0,-43.81921,172.655654,0.0,A,3,1,12,13.6,10.0,0.118,1.017,-0.296,4.0,3.7,2.7,101432,27.2,28.0,0,4.14,41.5,0.6883016109155947,0.06575278559335684
25.12,0,0,0,-43.81921,172.655654,0.0,A,3,1,12,13.6,10.0,-0.038,0.99,-0.094,-0.3,11.1,-0.5,101432,26.7,28.0,0,4.11,70.8,0.6883016109155947,-0.004821624029139215
25.17,0,0,0,-43.81921,172.655654,0.0,A,3,1,12,13.6,10.0,-0.11,0.994,-0.153,-0.4,-13.8,0.4,101432,26.7,27.9,0,4.16,41.5,0.6883016109155947,0.011704008097229934
25.22,0,0,0,-43.81921,172.655654,0.0,A,3,1,12,13.6,10.0,-0.07,1.003,-0.125,-2.3,-2.6,-1.2,101432,26.7,28.2,0,4.16,40.1,0.6883016109155947,0.013180141929360678
25.27,0,0,0,-43.81921,172.655654,0.0,A,3,1,12,13.6,10.0,-0.078,1.0,-0.104,-1.8,-2.7,-0.1,101432,27.0,28.2,0,4.15,41.5,0.6883016109155947,0.008414597276338531
25.32,0,0,0,-43.81921,172.655654,0.0,A,3,1,12,13.6,10.0,-0.069,0.982,-0.113,-2.3,-6.4,0.3,101434,26.5,28.1,0,4.15,41.5,0.5162220872582411,-0.009114537395971234
25.37,0,0,0,-43.81921,172.655654,0.0,A,3,1,12,13.6,10.0,-0.043,0.985,-0.104,-2.4,3.3,-0.1,101434,26.5,28.1,0,4.14,42.9,0.5162220872582411,-0.00859191046269947
25.42,0,0,0,-43.81921,172.655654,0.0,A,3,1,12,13.6,10.0,-0.05,1.002,-0.074,-1.9,-4.3,0.2,101434,27.0,28.1,0,4.15,40.5,0.5162220872582411,0.005972166612973284
25.47,0,0,0,-43.81921,172.655654,0.0,A,3,1,12,13.6,10.0,-0.066,1.006,-0.038,-0.8,-7.3,0.5,101434,27.5,28.4,0,4.12,73.1,0.5162220872582411,0.00887858536099384
25.52,0,0,0,-43.81921,172.655654,0.0,A,3,1,12,13.6,10.0,-0.081,0.997,-0.029,0.5,7.6,-0.4,101434,27.5,28.2,0,4.16,38.7,0.5162220872582411,0.0007052513102947522
25.57,0,0,0,-43.81921,172.655654,0.0,A,3,1,12,13.6,10.0,-0.122,0.981,-0.092,0.3,9.0,0.7,101438,27.0,28.2,0,4.11,68.0,0.17207128189720144,-0.007171213149014255
25.62,0,0,0,-43.81921,172.655654,0.0,A,3,1,12,13.6,10.0,-0.091,0.995,-0.034,0.9,0.5,2.6,101438,27.2,28.0,0,4.11,73.6,0.17207128189720144,-0.00026903619023577185
25.67,0,0,0,-43.81921,172.655654,0.0,A,3,1,12,13.6,10.0,0.04,1.035,-0.176,4.6,10.1,5.5,101438,27.2,28.1,0,4.14,49.8,0.17207128189720144,0.050619341150732744
25.72,0,0,0,-43.81921,172.655654,0.0,A,3,1,12,13.6,10.0,-0.07,0.981,-0.19,-2.0,17.4,0.9,101438,27.0,28.4,0,4.14,46.6,0.17207128189720144,0.0016790903278354197
25.77,0,0,0,-43.81921,172.655654,0.0,A,3,1,12,13.6,10.0,-0.064,0.99,-0.048,-1.0,-18.0,2.1,101438,26.7,28.4,0,4.13,48.9,0.17207128189720144,-0.00677293633328746
25.82,0,0,0,-43.81921,172.655654,0.0,A,3,1,12,13.6,10.0,0.015,1.008,-0.032,-1.5,5.0,-0.4,101438,26.7,28.1,0,4.11,74.0,0.17207128189720144,0.00861935337370956
25.883,0,0,0,-43.819206,172.655654,0.0,A,3,1,12,13.7,10.0,-0.086,1.0,-0.073,0.4,-6.2,-0.6,101438,27.5,28.3,0,4.17,41.9,0.17207128189720144,0.006342387063170474
25.926,0,0,0,-43.819206,172.655654,0.0,A,3,1,12,13.7,10.0,-0.119,0.99,-0.146,0.2,-4.6,-0.3,101438,27.0,28.3,0,4.14,40.1,0.17207128189720144,0.007758403586891394
25.973,0,0,0,-43.819206,172.655654,0.0,A,3,1,12,13.7,10.0,-0.09,0.998,-0.072,-1.2,4.1,0.5,101438,27.0,28.2,0,4.1,73.1,0.17207128189720144,0.004633266421135485
26.023,0,0,0,-43.819206,172.655654,0.0,A,3,1,12,13.7,10.0,-0.04,0.988,-0.147,-1.4,2.0,2.0,101434,27.0,28.4,0,4.14,39.6,0.5162220872582411,-0.0003235523430593634
26.073,0,0,0,-43.819206,172.655654,0.0,A,3,1,12,13.7,10.0,-0.094,0.991,-0.099,-1.7,-7.1,1.3,101434,27.0,28.4,0,4.14,43.8,0.5162220872582411,0.0003589355826236762
26.123,0,0,0,-43.819206,172.655654,0.0,A,3,1,12,13.7,10.0,-0.041,1.0,-0.064,-0.8,3.5,0.2,101434,27.0,28.2,0,4.11,66.6,0.5162220872582411,0.002884340290544296
26.173,0,0,0,-43.819206,172.655654,0.0,A,3,1,12,13.7,10.0,0.005,1.001,-0.111,0.8,9.1,-0.3,101434,27.0,28.0,0,4.15,42.9,0.5162220872582411,0.007147953381229755
26.223,0,0,0,-43.819206,172.655654,0.0,A,3,1,12,13.7,10.0,-0.05,0.997,-0.112,0.5,-3.1,-0.2,101434,27.0,28.0,0,4.14,41.0,0.5162220872582411,0.004516301510333776
26.273,0,0,0,-43.819206,172.655654,0.0,A,3,1,12,13.7,10.0,-0.089,0.984,-0.113,-0.4,-0.4,0.3,101428,27.0,28.2,0,4.14,43.8,1.03246890067285,-0.005542358870927022
26.323,0,0,0,-43.819206,172.655654,0.0,A,3,1,12,13.7,10.0,-0.038,0.988,-0.146,-1.9,-0.5,0.5,101428,27.0,28.2,0,4.11,70.8,1.03246890067285,-0.0005481502343397393
26.373,0,0,0,-43.819206,172.655654,0.0,A,3,1,12,13.7,10.0,-0.021,0.986,-0.106,-3.2,-9.1,0.7,101428,27.0,28.2,0,4.14,43.3,1.03246890067285,-0.008096274833086392
26.423,0,0,0,-43.819206,172.655654,0.0,A,3,1,12,13.7,10.0,-0.097,1.01,-0.103,-4.0,-9.1,-0.9,101428,27.0,28.1,0,4.17,38.7,1.03246890067285,0.0198617553374576
26.473,0,0,0,-43.819206,172.655654,0.0,A,3,1,12,13.7,10.0,-0.023,1.003,-0.057,-2.1,1.2,-0.1,101428,27.0,28.4,0,4.14,44.3,1.03246890067285,0.004881585063633231
26.523,0,0,0,-43.819206,172.655654,0.0,A,3,1,12,13.7,10.0,-0.067,0.997,-0.084,-1.0,-2.5,-0.2,101429,27.0,28.4,0,4.14,41.5,0.9464260478982991,0.0027731548062104316
26.573,0,0,0,-43.819206,172.655654,0.0,A,3,1,12,13.7,10.0,-0.042,0.995,-0.047,0.1,-1.0,-0.6,101429,27.0,28.2,0,4.14,42.9,0.9464260478982991,-0.0030055165649109927
26.623,0,0,0,-43.819206,172.655654,0.0,A,3,1,12,13.7,10.0,-0.219,1.002,-0.181,0.7,0.7,-0.7,101429,27.0,28.0,0,4.11,70.3,0.9464260478982991,0.041501800286489976
26.673,0,0,0,-43.819206,172.655654,0.0,A,3,1,12,13.7,10.0,-0.068,1.011,-0.055,-1.0,0.2,0.7,101429,27.0,28.0,0,4.11,78.2,0.9464260478982991,0.014775837315808227
26.723,0,0,0,-43.819206,172.655654,0.0,A,3,1,12,13.7,10.0,-0.047,0.991,-0.131,1.0,-2.7,0.7,101429,27.0,27.9,0,4.15,44.7,0.9464260478982991,0.0007252370156356491
26.773,0,0,0,-43.819206,172.655654,0.0,A,3,1,12,13.7,10.0,-0.064,0.998,-0.082,-0.2,-2.1,2.2,101433,26.7,28.1,0,4.14,46.6,0.6022615056609358,0.003406198904511326
26.823,0,0,0,-43.819206,172.655654,0.0,A,3,1,12,13.7,10.0,-0.111,0.999,-0.087,1.2,7.0,2.4,101433,26.7,28.1,0,4.11,74.0,0.6022615056609358,0.008905842980404088
26.886,0,0,0,-43.819206,172.655654,0.0,A,3,1,12,13.7,10.0,0.015,1.002,-0.1,0.1,5.7,1.0,101433,26.7,27.8,0,4.15,41.0,0.6022615056609358,0.007089370413569496
26.928,0,0,0,-43.819206,172.655654,0.0,A,3,1,12,13.7,10.0,0.008,1.003,-0.156,0.1,-4.0,-1.3,101433,26.7,28.2,0,4.15,38.2,0.6022615056609358,0.015090636347316444
26.976,0,0,0,-43.819206,172.655654,0.0,A,3,1,12,13.7,10.0,-0.055,0.999,-0.033,-1.3,-7.6,-0.8,101433,27.0,28.2,0,4.14,40.5,0.6022615056609358,0.0010569414373988728
27.026,0,0,0,-43.819206,172.655654,0.0,A,3,1,12,13.7,10.0,-0.043,0.994,-0.073,-0.9,-2.3,-1.6,101437,27.7,28.6,0,4.11,70.8,0.25810795302444456,-0.002395870096760233
27.076,0,0,0,-43.819206,172.655654,0.0,A,3,1,12,13.7,10.0,-0.032,0.983,-0.108,0.1,-2.6,1.0,101437,27.7,28.4,0,4.15,43.3,0.25810795302444456,-0.010567334276859408
27.126,0,0,0,-43.819206,172.655654,0.0,A,3,1,12,13.7,10.0,0.022,0.998,-0.125,0.2,4.0,0.9,101437,27.2,28.4,0,4.15,38.7,0.25810795302444456,0.006038269649818018
27.176,0,0,0,-43.819206,172.655654,0.0,A,3,1,12,13.7,10.0,-0.062,0.999,-0.118,1.2,15.9,0.7,101437,27.7,28.4,0,4.12,70.8,0.25810795302444456,0.007853660012206332
27.226,0,0,0,-43.819206,172.655654,0.0,A,3,1,12,13.7,10.0,-0.115,0.999,-0.148,-0.1,-5.9,-0.2,101437,27.7,28.4,0,4.15,39.6,0.25810795302444456,0.016430027104669787
27.276,0,0,0,-43.819206,172.655654,0.0,A,3,1,12,13.7,10.0,-0.01,1.003,-0.115,-2.7,-14.6,-0.6,101438,27.2,28.4,0,4.15,44.3,0.17207128189720144,0.009620720865018528
27.326,0,0,0,-43.819206,172.655654,0.0,A,3,1,12,13.7,10.0,0.017,1.0,-0.077,-2.1,-1.0,-1.3,101438,27.2,28.2,0,4.15,38.2,0.17207128189720144,0.0031041820269717135
27.376,0,0,0,-43.819206,172.655654,0.0,A,3,1,12,13.7,10.0,-0.159,0.995,-0.124,-2.3,2.4,-1.2,101438,27.2,27.9,0,4.15,43.8,0.17207128189720144,0.015225098192514164
27.426,0,0,0,-43.819206,172.655654,0.0,A,3,1,12,13.7,10.0,-0.115,1.011,-0.125,-1.2,-7.5,-1.0,101438,27.0,27.9,0,4.15,42.9,0.17207128189720144,0.025168766594066527
27.476,0,0,0,-43.819206,172.655654,0.0,A,3,1,12,13.7,10.0,-0.069,0.995,-0.057,-0.7,-7.7,1.5,101438,27.2,28.3,0,4.14,44.3,0.17207128189720144,-0.0009829831279148937
27.526,0,0,0,-43.819206,172.655654,0.0,A,3,1,12,13.7,10.0,-0.103,0.991,-0.123,-1.0,11.0,1.2,101436,27.2,28.1,0,4.11,70.3,0.34414531095272677,0.0039018876364362853
27.576,0,0,0,-43.819206,172.655654,0.0,A,3,1,12,13.7,10.0,-0.067,0.995,-0.071,0.5,-3.8,3.2,101436,26.7,28.1,0,4.15,49.4,0.34414531095272677,-0.00022252475863415722
27.626,0,0,0,-43.819206,172.655654,0.0,A,3,1,12,13.7,10.0,0.094,0.995,-0.057,2.2,9.6,5.6,101436,27.2,28.4,0,4.15,49.4,0.34414531095272677,0.0010544440738475824
27.676,0,0,0,-43.819206,172.655654,0.0,A,3,1,12,13.7,10.0,0.06,0.994,-0.109,0.7,19.4,-0.6,101436,27.2,28.0,0,4.11,75.9,0.34414531095272677,0.0017569565518373853
27.726,0,0,0,-43.819206,172.655654,0.0,A,3,1,12,13.7,10.0,-0.032,0.99,-0.195,0.9,-9.5,-0.5,101436,27.0,28.0,0,4.16,47.5,0.34414531095272677,0.00952909814427838
27.776,0,0,0,-43.819206,172.655654,0.0,A,3,1,12,13.7,10.0,-0.09,0.996,-0.13,-1.3,-5.8,-1.7,101435,27.0,27.8,0,4.15,48.4,0.43018335569223315,0.008472111661993242
27.826,0,0,0,-43.819206,172.655654,0.0,A,3,1,12,13.7,10.0,-0.089,0.998,-0.101,-2.1,-4.6,-0.4,101435,27.0,28.2,0,4.14,47.5,0.43018335569223315,0.00703823164763695
27.89,0,0,0,-43.819206,172.655654,1.181,A,3,1,12,13.7,10.0,-0.075,1.0,-0.054,-1.0,-3.3,1.5,101435,27.2,27.9,0,4.14,43.3,0.43018335569223315,0.004261420149156203
27.931,0,0,0,-43.819206,172.655654,1.181,A,3,1,12,13.7,10.0,-0.081,0.996,-0.075,-0.6,8.5,1.6,101435,26.7,27.9,0,4.14,41.0,0.43018335569223315,0.002098797524475726
27.979,0,0,0,-43.819206,172.655654,1.181,A,3,1,12,13.7,10.0,-0.05,0.989,-0.12,0.2,9.0,1.2,101435,26.7,28.1,0,4.15,43.8,0.43018335569223315,-0.0024926065436908784
28.029,0,0,0,-43.819206,172.655654,1.181,A,3,1,12,13.7,10.0,-0.048,0.991,-0.133,-1.2,-4.1,-0.6,101437,27.0,28.1,0,4.11,71.7,0.25810795302444456,0.0010364628723571467
28.079,0,0,0,-43.819206,172.655654,1.181,A,3,1,12,13.7,10.0,-0.055,0.996,-0.099,-1.7,-13.4,-0.5,101437,26.7,27.8,0,4.15,43.8,0.25810795302444456,0.002418076453133411
28.129,0,0,0,-43.819206,172.655654,1.181,A,3,1,12,13.7,10.0,-0.096,0.993,-0.09,-1.2,1.3,0.4,101437,26.7,28.4,0,4.14,41.0,0.25810795302444456,0.0016810869732941658
28.179,0,0,0,-43.819206,172.655654,1.181,A,3,1,12,13.7,10.0,-0.066,0.998,-0.098,-0.9,5.9,1.4,101437,27.5,28.4,0,4.14,39.6,0.25810795302444456,0.004969651283062371
28.229,0,0,0,-43.819206,172.655654,1.181,A,3,1,12,13.7,10.0,-0.049,0.99,-0.105,-1.0,-1.8,1.5,101437,27.2,28.2,0,4.13,71.7,0.25810795302444456,-0.0032422561123490734
28.279,0,0,0,-43.819206,172.655654,1.181,A,3,1,12,13.7,10.0,-0.038,0.994,-0.099,-1.1,2.6,1.2,101440,27.2,28.1,0,4.14,42.9,0.0,-0.0003595646433663946
28.329,0,0,0,-43.819206,172.655654,1.181,A,3,1,12,13.7,10.0,-0.029,0.998,-0.109,-1.0,1.3,0.2,101440,27.0,28.1,0,4.15,43.3,0.0,0.004353523416929184
28.379,0,0,0,-43.819206,172.655654,1.181,A,3,1,12,13.7,10.0,-0.049,1.0,-0.06,-0.5,-3.5,0.2,101440,27.0,28.3,0,4.11,75.4,0.0,0.0029960119561793785
28.429,0,0,0,-43.819206,172.655654,1.181,A,3,1,12,13.7,10.0,-0.074,0.996,-0.077,-1.3,-4.2,-1.0,101440,27.0,28.2,0,4.15,39.1,0.0,0.0017090395918368806
28.479,0,0,0,-43.819206,172.655654,1.181,A,3,1,12,13.7,10.0,-0.042,0.987,-0.134,0.0,1.5,-0.1,101426,27.2,28.2,0,4.14,41.5,1.204556666976452,-0.003060182358032293
28.529,0,0,0,-43.819206,172.655654,1.181,A,3,1,12,13.7,10.0,-0.07,0.994,-0.136,-0.4,1.6,0.1,101426,27.2,28.4,0,4.15,42.9,1.204556666976452,0.005699756388555688
28.579,0,0,0,-43.819206,172.655654,1.181,A,3,1,12,13.7,10.0,-0.068,1.001,-0.11,-1.2,-5.2,0.5,101426,27.2,27.9,0,4.14,49.8,1.204556666976452,0.009319077398222797
28.629,0,0,0,-43.819206,172.655654,1.181,A,3,1,12,13.7,10.0,-0.076,0.999,-0.103,-1.5,3.8,1.5,101426,27.5,27.9,0,4.15,45.7,1.204556666976452,0.007167314799283897
28.679,0,0,0,-43.819206,172.655654,1.181,A,3,1,12,13.7,10.0,-0.031,0.997,-0.067,-1.4,8.5,1.8,101426,27.0,28.2,0,4.14,50.3,1.204556666976452,-0.00027053659502462857
28.729,0,0,0,-43.819206,172.655654,1.181,A,3,1,12,13.7,10.0,-0.021,0.992,-0.084,-0.3,7.7,1.1,101423,27.0,28.1,0,4.14,73.6,1.4626934684708812,-0.004228439851790111
28.779,0,0,0,-43.819206,172.655654,1.181,A,3,1,12,13.7,10.0,0.002,0.997,-0.125,0.1,-4.6,-0.1,101423,27.2,28.1,0,4.14,49.4,1.4626934684708812,0.004807444239939951
28.829,0,0,0,-43.819206,172.655654,1.181,A,3,1,12,13.7,10.0,-0.035,0.995,-0.118,-1.3,-14.3,-1.8,101423,27.2,28.4,0,4.14,47.5,1.4626934684708812,0.002583662344444848
28.893,0,0,0,-43.81921,172.655639,0.0,A,3,1,12,13.6,10.0,-0.107,0.998,-0.109,-2.0,-3.7,-1.5,101423,27.2,28.3,0,4.14,45.2,1.4626934684708812,0.00962072086501875
28.935,0,0,0,-43.81921,172.655639,0.0,A,3,1,12,13.6,10.0,-0.055,0.998,-0.106,-2.8,-2.1,-1.2,101423,27.2,27.9,0,4.11,72.6,1.4626934684708812,0.005119395892846157
28.983,0,0,0,-43.81921,172.655639,0.0,A,3,1,12,13.6,10.0,-0.121,0.982,-0.097,-2.6,-8.4,0.5,101431,26.5,27.9,0,4.15,44.7,0.7743424030324028,-0.005829994417453799
29.033,0,0,0,-43.81921,172.655639,0.0,A,3,1,12,13.6,10.0,-0.075,1.0,-0.048,-1.5,-4.2,1.5,101431,26.5,28.3,0,4.14,41.5,0.7743424030324028,0.003956672371870917
29.083,0,0,0,-43.81921,172.655639,0.0,A,3,1,12,13.6,10.0,-0.05,0.988,-0.03,-1.9,9.3,1.3,101431,27.2,28.1,0,4.12,73.6,0.7743424030324028,-0.010280847916945723
29.133,0,0,0,-43.81921,172.655639,0.0,A,3,1,12,13.6,10.0,-0.053,0.999,-0.077,0.8,4.0,2.4,101431,27.0,28.1,0,4.18,39.6,0.7743424030324028,0.0033638422825490455
29.183,0,0,0,-43.81921,172.655639,0.0,A,3,1,12,13.6,10.0,0.083,1.0,-0.208,4.3,4.1,4.1,101431,27.0,28.2,0,4.14,45.7,0.7743424030324028,0.02476973023211415
29.233,0,0,0,-43.81921,172.655639,0.0,A,3,1,12,13.6,10.0,0.046,0.993,-0.108,2.1,27.2,-0.8,101431,27.2,27.9,0,4.12,70.8,0.7743424030324028,-8.550365543757987e-05
29.283,0,0,0,-43.81921,172.655639,0.0,A,3,1,12,13.6,10.0,-0.062,0.989,-0.204,2.2,-2.4,0.0,101431,26.7,27.9,0,4.11,70.8,0.7743424030324028,0.011721799705828317
29.333,0,0,0,-43.81921,172.655639,0.0,A,3,1,12,13.6,10.0,-0.066,0.989,-0.167,-2.7,-9.7,-0.2,101431,26.7,28.3,0,4.15,40.1,0.7743424030324028,0.005169637424449869
29.383,0,0,0,-43.81921,172.655639,0.0,A,3,1,12,13.6,10.0,-0.086,1.001,-0.094,-3.2,-9.6,-0.8,101431,27.0,28.5,0,4.14,43.3,0.7743424030324028,0.009075319289893136
29.433,0,0,0,-43.81921,172.655639,0.0,A,3,1,12,13.6,10.0,-0.051,0.997,-0.092,-2.4,-3.1,0.7,101431,27.7,28.5,0,4.12,70.3,0.7743424030324028,0.0025337899542339226
29.483,0,0,0,-43.81921,172.655639,0.0,A,3,1,12,13.6,10.0,-0.138,0.998,-0.024,-1.8,-1.5,1.7,101433,27.7,28.2,0,4.15,43.8,0.6022615056609358,0.00778172239825814
29.533,0,0,0,-43.81921,172.655639,0.0,A,3,1,12,13.6,10.0,0.008,0.992,-0.081,-0.2,3.1,1.2,101433,27.0,28.2,0,4.16,41.0,0.6022615056609358,-0.004666387586554022
29.583,0,0,0,-43.81921,172.655639,0.0,A,3,1,12,13.6,10.0,0.05,1.003,-0.106,0.4,6.5,0.7,101433,27.2,28.2,0,4.11,80.5,0.6022615056609358,0.009824242133253502
29.633,0,0,0,-43.81921,172.655639,0.0,A,3,1,12,13.6,10.0,-0.038,1.0,-0.107,0.3,-8.5,-3.1,101433,27.2,27.9,0,4.14,46.1,0.6022615056609358,0.006425854198907288
29.683,0,0,0,-43.81921,172.655639,0.0,A,3,1,12,13.6,10.0,-0.05,1.0,-0.127,-2.0,-10.8,-2.0,101433,27.0,28.3,0,4.14,51.7,0.6022615056609358,0.009271519463419642
29.733,0,0,0,-43.81921,172.655639,0.0,A,3,1,12,13.6,10.0,-0.057,0.97,-0.109,-2.8,-5.5,0.9,101426,27.2,28.3,0,4.14,48.0,1.204556666976452,-0.022232133888620775
29.783,0,0,0,-43.81921,172.655639,0.0,A,3,1,12,13.6,10.0,-0.114,0.993,-0.061,-1.5,3.3,0.9,101426,27.2,28.3,0,4.11,75.4,1.204556666976452,0.001382044975842378
29.833,0,0,0,-43.81921,172.655639,0.0,A,3,1,12,13.6,10.0,-0.056,0.998,-0.064,0.4,-6.8,2.7,101426,27.2,27.8,0,4.15,47.1,1.204556666976452,0.0016166931516268246
29.897,0,0,0,-43.81921,172.655654,0.0,A,3,1,12,13.6,10.0,0.004,0.995,-0.105,-0.6,16.3,-0.1,101426,27.0,27.8,0,4.14,44.7,1.204556666976452,0.0005328580311592113
29.937,0,0,0,-43.81921,172.655654,0.0,A,3,1,12,13.6,10.0,0.042,0.999,-0.128,-0.4,0.7,2.4,101426,27.0,28.4,0,4.12,72.6,1.204556666976452,0.00804216181665729
29.985,0,0,0,-43.81921,172.655654,0.0,A,3,1,12,13.6,10.0,0.027,1.001,-0.15,1.3,4.9,0.5,101424,27.2,28.2,0,4.15,41.0,1.3766471810189238,0.012536419098098328
30.035,0,0,0,-43.81921,172.655654,0.0,A,3,1,12,13.6,10.0,-0.133,0.986,-0.113,-0.2,-4.0,-1.6,101424,27.0,28.2,0,4.14,39.6,1.3766471810189238,0.0013261207019419352
30.085,0,0,0,-43.81921,172.655654,0.0,A,3,1,12,13.6,10.0,-0.071,0.995,-0.13,-1.1,-2.4,0.9,101424,27.0,27.8,0,4.11,74.5,1.3766471810189238,0.005965208145888079
30.135,0,0,0,-43.81921,172.655654,0.0,A,3,1,12,13.6,10.0,-0.128,0.995,-0.068,-1.6,-2.1,1.2,101424,27.0,28.5,0,4.15,40.5,1.3766471810189238,0.005501367477936281
30.185,0,0,0,-43.81921,172.655654,0.0,A,3,1,12,13.6,10.0,0.054,1.001,-0.141,-0.5,4.4,0.7,101424,27.7,28.5,0,4.15,42.4,1.3766471810189238,0.012323070961044458
30.235,0,0,0,-43.81921,172.655654,0.0,A,3,1,12,13.6,10.0,-0.061,0.999,-0.105,-0.5,3.4,1.2,101427,27.7,28.3,0,4.15,40.1,1.1185124403604751,0.0063533176772461175
30.285,0,0,0,-43.81921,172.655654,0.0,A,3,1,12,13.6,10.0,-0.091,0.986,-0.06,-0.9,-4.0,-0.2,101427,27.2,27.9,0,4.11,63.8,1.1185124403604751,-0.007993447602285264
30.335,0,0,0,-43.81921,172.655654,0.0,A,3,1,12,13.6,10.0,0.033,0.993,-0.106,-0.2,-3.2,-0.4,101427,26.7,27.9,0,4.15,40.1,1.1185124403604751,-0.000813330753457242
30.385,0,0,0,-43.81921,172.655654,0.0,A,3,1,12,13.6,10.0,-0.124,0.992,-0.103,-0.2,-1.7,0.4,101427,26.7,28.1,0,4.14,43.8,1.1185124403604751,0.0050119402275776714
30.435,0,0,0,-43.81921,172.655654,0.0,A,3,1,12,13.6,10.0,-0.039,0.995,-0.108,-1.0,2.5,1.3,101427,27.2,28.1,0,4.11,72.2,1.1185124403604751,0.001603714050621985
30.485,0,0,0,-43.81921,172.655654,0.0,A,3,1,12,13.6,10.0,-0.031,0.998,-0.133,-0.5,2.3,0.9,101430,26.5,28.1,0,4.15,41.9,0.8603838820215451,0.00730035242721927
30.535,0,0,0,-43.81921,172.655654,0.0,A,3,1,12,13.6,10.0,-0.056,0.993,-0.084,-1.8,-2.5,-0.5,101430,26.5,28.0,0,4.14,40.5,0.8603838820215451,-0.001881269587630685
30.585,0,0,0,-43.81921,172.655654,0.0,A,3,1,12,13.6,10.0,-0.057,0.994,-0.102,-1.6,-3.2,0.2,101430,27.0,28.3,0,4.14,49.4,0.8603838820215451,0.0008441437106978533
30.635,0,0,0,-43.81921,172.655654,0.0,A,3,1,12,13.6,10.0,-0.045,0.993,-0.096,-0.6,-1.8,-0.1,101430,27.2,28.3,0,4.15,45.7,0.8603838820215451,-0.001355919258517857
30.685,0,0,0,-43.81921,172.655654,0.0,A,3,1,12,13.6,10.0,-0.13,1.002,-0.077,-0.2,1.7,0.4,101430,27.2,28.1,0,4.14,48.4,0.8603838820215451,0.013327686387774484
30.735,0,0,0,-43.81921,172.655654,0.0,A,3,1,12,13.6,10.0,0.032,1.0,-0.152,0.7,8.5,1.6,101430,26.7,28.2,0,4.14,47.1,0.8603838820215451,0.011992094830784783
30.785,0,0,0,-43.81921,172.655654,0.0,A,3,1,12,13.6,10.0,-0.044,0.996,-0.15,-0.2,1.2,0.5,101430,27.2,28.2,0,4.11,77.7,0.8603838820215451,0.00819244194746882
30.836,0,0,0,-43.81921,172.655654,0.0,A,3,1,12,13.6,10.0,-0.057,0.991,-0.119,-1.3,-1.0,0.9,101430,27.2,27.9,0,4.11,72.6,0.8603838820215451,-0.0002545323933696997
30.899,0,0,0,-43.819213,172.655654,0.0,A,3,1,12,13.5,10.0,-0.039,0.993,-0.082,-1.0,0.6,0.7,101430,26.7,27.7,0,4.14,41.9,0.8603838820215451,-0.002857081457226629
30.938,0,0,0,-43.819213,172.655654,0.0,A,3,1,12,13.5,10.0,-0.073,0.998,-0.096,-1.0,-1.9,0.9,101418,26.7,27.7,0,4.15,38.7,1.8929352105878743,0.005260662713905129
30.987,0,0,0,-43.819213,172.655654,0.0,A,3,1,12,13.5,10.0,-0.092,0.993,-0.07,-1.5,-4.4,-0.7,101418,27.0,28.1,0,4.14,41.5,1.8929352105878743,-0.00029354308377105287
31.037,0,0,0,-43.819213,172.655654,0.0,A,3,1,12,13.5,10.0,-0.061,0.998,-0.096,-0.1,-0.2,0.4,101418,27.0,28.2,0,4.14,38.7,1.8929352105878743,0.004460551739091434
31.087,0,0,0,-43.819213,172.655654,0.0,A,3,1,12,13.5,10.0,-0.036,0.995,-0.077,-0.4,7.0,0.4,101418,27.2,28.2,0,4.14,45.2,1.8929352105878743,-0.0013759466145430999
31.137,0,0,0,-43.819213,172.655654,0.0,A,3,1,12,13.5,10.0,-0.063,0.994,-0.1,-0.2,-0.5,0.7,101418,27.0,28.3,0,4.11,70.8,1.8929352105878743,0.0010019980000040007
31.187,0,0,0,-43.819213,172.655654,0.0,A,3,1,12,13.5,10.0,-0.031,0.999,-0.115,-0.9,1.6,1.2,101421,27.0,28.2,0,4.15,43.3,1.6347881043126267,0.006075046902565884
31.237,0,0,0,-43.819213,172.655654,0.0,A,3,1,12,13.5,10.0,0.024,0.993,-0.121,-0.8,0.5,0.7,101421,27.2,28.2,0,4.15,40.1,1.6347881043126267,0.0006327997822177522
31.287,0,0,0,-43.819213,172.655654,0.0,A,3,1,12,13.5,10.0,-0.095,0.991,-0.09,-1.3,-3.2,-0.1,101421,27.0,28.1,0,4.12,73.1,1.6347881043126267,-0.00039707883580097914
31.337,0,0,0,-43.819213,172.655654,0.0,A,3,1,12,13.5,10.0,-0.067,0.992,-0.115,-1.2,-7.5,0.4,101421,27.0,28.3,0,4.16,40.1,1.6347881043126267,0.0008886051904077874
31.387,0,0,0,-43.819213,172.655654,0.0,A,3,1,12,13.5,10.0,-0.026,0.997,-0.094,-1.5,-1.6,0.2,101421,27.2,28.3,0,4.12,68.4,1.6347881043126267,0.0017589530420978328
31.437,0,0,0,-43.819213,172.655654,0.0,A,3,1,12,13.5,10.0,-0.083,0.999,-0.076,-0.5,2.2,-0.1,101423,26.2,27.7,0,4.16,40.5,1.4626934684708812,0.005318854891322555
31.487,0,0,0,-43.819213,172.655654,0.0,A,3,1,12,13.5,10.0,-0.053,1.0,-0.091,0.4,-2.1,0.7,101423,26.2,27.8,0,4.12,72.6,1.4626934684708812,0.0055297111473135985
31.537,0,0,0,-43.819213,172.655654,0.0,A,3,1,12,13.5,10.0,-0.04,0.996,-0.106,0.2,-1.6,0.0,101423,26.7,27.8,0,4.15,40.1,1.4626934684708812,0.0024230643795064566
31.587,0,0,0,-43.819213,172.655654,0.0,A,3,1,12,13.5,10.0,-0.053,0.987,-0.145,0.3,6.6,0.1,101423,26.7,28.0,0,4.13,48.0,1.4626934684708812,-0.000998998999500622
31.637,0,0,0,-43.819213,172.655654,0.0,A,3,1,12,13.5,10.0,-0.11,0.995,-0.113,-1.1,-0.4,-0.4,101423,26.7,27.9,0,4.11,77.3,1.4626934684708812,0.00741947569024104
31.687,0,0,0,-43.819213,172.655654,0.0,A,3,1,12,13.5,10.0,-0.005,1.001,-0.132,-1.2,-10.5,0.8,101424,26.5,27.9,0,4.15,49.8,1.3766471810189238,0.009678166546152278
31.737,0,0,0,-43.819213,172.655654,0.0,A,3,1,12,13.5,10.0,-0.106,0.998,-0.051,-2.1,1.5,0.9,101424,26.7,28.1,0,4.14,43.8,1.3766471810189238,0.004908453541913493
31.787,0,0,0,-43.819213,172.655654,0.0,A,3,1,12,13.5,10.0,-0.054,0.993,-0.099,-0.9,-2.4,0.2,101424,26.7,28.3,0,4.17,47.5,1.3766471810189238,-0.0006171904620332347
31.85,0,0,0,-43.819213,172.655639,0.0,A,3,1,12,13.6,10.0,-0.084,0.991,-0.084,-0.9,-2.3,0.1,101424,27.2,27.8,0,4.15,40.1,1.3766471810189238,-0.001905315112839645
31.893,0,0,0,-43.819213,172.655639,0.0,A,3,1,12,13.6,10.0,-0.065,0.996,-0.107,-1.6,-2.0,-0.5,101424,26.7,27.8,0,4.14,42.4,1.3766471810189238,0.0038376362739145353
31.94,0,0,0,-43.819213,172.655639,0.0,A,3,1,12,13.6,10.0,-0.027,0.999,-0.121,-0.7,-4.8,-1.0,101430,26.7,28.2,0,4.11,68.4,0.8603838820215451,0.006663300215121515
31.99,0,0,0,-43.819213,172.655639,0.0,A,3,1,12,13.6,10.0,-0.132,1.0,-0.152,-0.9,-5.5,-0.2,101430,27.0,28.2,0,4.12,73.6,0.8603838820215451,0.020062743168281827
32.04,0,0,0,-43.819213,172.655639,0.0,A,3,1,12,13.6,10.0,-0.047,0.995,-0.097,-2.0,2.6,0.0,101430,26.5,27.6,0,4.15,41.5,0.8603838820215451,0.0008211628457903686
32.09,0,0,0,-43.819213,172.655639,0.0,A,3,1,12,13.6,10.0,-0.071,0.985,-0.07,-0.5,-2.6,0.5,101430,26.5,28.3,0,4.14,42.4,0.8603838820215451,-0.00996666722781503
32.14,0,0,0,-43.819213,172.655639,0.0,A,3,1,12,13.6,10.0,-0.085,0.99,-0.041,0.7,4.6,0.7,101430,27.2,28.3,0,4.15,39.1,0.8603838820215451,-0.005512192131044702
32.19,0,0,0,-43.819213,172.655639,0.0,A,3,1,12,13.6,10.0,0.068,0.968,-0.171,2.1,8.5,3.4,101431,27.0,28.2,0,4.12,41.5,0.7743424030324028,-0.01466300181105551
32.24,0,0,0,-43.819213,172.655639,0.0,A,3,1,12,13.6,10.0,-0.048,1.008,-0.102,-1.2,4.2,0.1,101431,27.0,28.2,0,4.15,40.1,0.7743424030324028,0.01428398390194463
32.29,0,0,0,-43.819213,172.655639,0.0,A,3,1,12,13.6,10.0,-0.01,0.999,-0.136,-1.6,-9.0,1.2,101431,27.0,28.2,0,4.14,38.7,0.7743424030324028,0.008264350257411346
32.34,0,0,0,-43.819213,172.655639,0.0,A,3,1,12,13.6,10.0,-0.049,0.99,-0.052,-2.9,0.2,-0.1,101431,27.2,28.4,0,4.11,70.3,0.7743424030324028,-0.007425065801075159
32.39,0,0,0,-43.819213,172.655639,0.0,A,3,1,12,13.6,10.0,-0.063,0.993,-0.111,-1.5,-4.8,0.8,101431,27.2,28.2,0,4.14,44.7,0.7743424030324028,0.001168816933488026
32.44,0,0,0,-43.819213,172.655639,0.0,A,3,1,12,13.6,10.0,-0.05,1.0,-0.061,-0.6,-4.6,0.1,101435,27.0,28.2,0,4.11,66.1,0.43018335569223315,0.003105677383993255
32.49,0,0,0,-43.819213,172.655639,0.0,A,3,1,12,13.6,10.0,-0.059,1.001,-0.032,0.4,1.6,0.4,101435,27.0,27.9,0,4.12,71.2,0.43018335569223315,0.0032477261374679323
32.54,0,0,0,-43.819213,172.655639,0.0,A,3,1,12,13.6,10.0,-0.05,0.993,-0.141,0.5,12.5,0.2,101435,27.0,28.3,0,4.16,40.1,0.43018335569223315,0.004206154133701734
32.59,0,0,0,-43.819213,172.655639,0.0,A,3,1,12,13.6,10.0,-0.034,0.993,-0.165,0.4,0.9,1.3,101435,27.0,28.3,0,4.14,48.9,0.43018335569223315,0.007189158003599649
32.64,0,0,0,-43.819213,172.655639,0.0,A,3,1,12,13.6,10.0,-0.058,0.996,-0.11,-1.2,-3.0,0.9,101435,26.5,28.1,0,4.14,43.3,0.43018335569223315,0.003733032235165634
32.69,0,0,0,-43.819213,172.655639,0.0,A,3,1,12,13.6,10.0,-0.043,0.99,-0.105,-2.7,-3.8,0.3,101427,26.5,28.0,0,4.15,48.0,1.1185124403604751,-0.003519192357424372
32.74,0,0,0,-43.819213,172.655639,0.0,A,3,1,12,13.6,10.0,-0.079,0.994,-0.108,-2.3,-8.8,0.4,101427,26.7,28.0,0,4.14,47.1,1.1185124403604751,0.0029661011220667444
32.79,0,0,0,-43.819213,172.655639,0.0,A,3,1,12,13.6,10.0,-0.075,0.999,-0.049,-1.3,1.2,-0.1,101427,26.7,28.3,0,4.14,46.6,1.1185124403604751,0.003008973040620422
32.852,0,0,0,-43.819213,172.655654,0.0,A,3,1,12,13.6,10.0,0.0,0.997,-0.08,0.4,-0.5,0.5,101427,26.7,28.0,0,4.15,40.5,1.1185124403604751,0.00020447909415000076
32.895,0,0,0,-43.819213,172.655654,0.0,A,3,1,12,13.6,10.0,-0.038,0.99,-0.151,0.0,-4.5,0.2,101427,27.0,28.0,0,4.15,44.7,1.1185124403604751,0.0021701452348299455
32.942,0,0,0,-43.819213,172.655654,0.0,A,3,1,12,13.6,10.0,-0.087,0.988,-0.132,-1.2,-4.7,0.1,101437,27.2,28.2,0,4.14,39.6,0.25810795302444456,0.0005683384956771675
32.992,0,0,0,-43.819213,172.655654,0.0,A,3,1,12,13.6,10.0,-0.054,0.995,-0.084,-1.6,3.2,0.3,101437,27.2,28.2,0,4.14,41.0,0.25810795302444456,-1.5000011249766132e-06
33.042,0,0,0,-43.819213,172.655654,0.0,A,3,1,12,13.6,10.0,-0.049,0.992,-0.105,-1.5,-3.2,0.9,101437,27.0,28.2,0,4.17,41.5,0.25810795302444456,-0.0012557885023813942
33.092,0,0,0,-43.819213,172.655654,0.0,A,3,1,12,13.6,10.0,-0.09,0.997,-0.058,-1.2,0.0,0.4,101437,26.7,27.8,0,4.14,42.9,0.25810795302444456,0.0027327659950082683
33.142,0,0,0,-43.819213,172.655654,0.0,A,3,1,12,13.6,10.0,-0.015,0.997,-0.072,-0.5,1.4,0.2,101432,26.7,28.2,0,4.14,39.6,0.6883016109155947,-0.00029104235282551016
33.192,0,0,0,-43.819213,172.655654,0.0,A,3,1,12,13.6,10.0,-0.035,1.0,-0.1,1.2,1.5,0.7,101432,27.0,28.2,0,4.12,73.1,0.6883016109155947,0.005596837703858437
33.242,0,0,0,-43.819213,172.655654,0.0,A,3,1,12,13.6,10.0,-0.088,0.997,-0.105,-0.5,-1.2,-1.2,101432,26.5,27.7,0,4.15,40.1,0.6883016109155947,0.006368719704661796
33.292,0,0,0,-43.819213,172.655654,0.0,A,3,1,12,13.6,10.0,0.0,0.99,-0.175,0.1,0.2,0.9,101432,26.5,28.1,0,4.14,42.4,0.6883016109155947,0.005348198387006509
33.342,0,0,0,-43.819213,172.655654,0.0,A,3,1,12,13.6,10.0,-0.084,1.0,-0.148,-0.2,4.3,1.0,101432,27.2,28.1,0,4.14,37.7,0.6883016109155947,0.01437665588281356
33.392,0,0,0,-43.819213,172.655654,0.0,A,3,1,12,13.6,10.0,-0.09,0.999,-0.08,-2.0,-2.7,0.0,101435,27.0,28.3,0,4.14,43.3,0.43018335569223315,0.006231086778777817
33.442,0,0,0,-43.819213,172.655654,0.0,A,3,1,12,13.6,10.0,-0.011,0.987,-0.066,-2.6,-8.4,-0.2,101435,27.0,28.2,0,4.14,39.1,0.43018335569223315,-0.010734615990228846
33.492,0,0,0,-43.819213,172.655654,0.0,A,3,1,12,13.6,10.0,-0.125,0.985,-0.106,-0.7,-2.9,0.4,101435,27.2,28.2,0,4.12,67.1,0.43018335569223315,-0.0014580629738177864
33.542,0,0,0,-43.819213,172.655654,0.0,A,3,1,12,13.6,10.0,-0.077,1.003,-0.039,-0.4,4.0,0.5,101435,27.0,28.1,0,4.12,80.5,0.43018335569223315,0.006707008021698435
33.592,0,0,0,-43.819213,172.655654,0.0,A,3,1,12,13.6,10.0,-0.085,1.014,-0.09,1.8,9.5,2.6,101435,27.0,28.2,0,4.14,48.4,0.43018335569223315,0.021528756325537968
33.642,0,0,0,-43.819213,172.655654,0.0,A,3,1,12,13.6,10.0,-0.064,0.984,-0.153,0.5,12.0,-1.6,101432,26.7,28.2,0,4.14,44.3,0.6883016109155947,-0.0021217509134694446
33.692,0,0,0,-43.819213,172.655654,0.0,A,3,1,12,13.6,10.0,-0.049,0.984,-0.083,0.4,-9.9,0.9,101432,27.2,28.4,0,4.1,78.2,0.6883016109155947,-0.01129074040949729
33.742,0,0,0,-43.819213,172.655654,0.0,A,3,1,12,13.6,10.0,-0.054,0.99,-0.103,-2.4,-4.3,-0.5,101432,27.2,28.3,0,4.17,45.7,0.6883016109155947,-0.0031925963356813636
33.792,0,0,0,-43.819213,172.655654,0.0,A,3,1,12,13.6,10.0,-0.055,0.994,-0.109,-2.3,0.1,-0.1,101432,27.0,28.3,0,4.15,46.1,0.6883016109155947,0.0014699196680847404
33.855,0,0,0,-43.819213,172.655654,0.0,A,3,1,12,13.6,10.0,-0.103,0.991,-0.065,-0.5,-6.0,0.7,101432,27.0,28.3,0,4.15,41.0,0.6883016109155947,-0.0015436914917107414
33.898,0,0,0,-43.819213,172.655654,0.0,A,3,1,12,13.6,10.0,-0.057,1.0,-0.071,0.2,2.3,1.0,101432,27.0,28.4,0,4.12,71.2,0.6883016109155947,0.004136444911746029
33.946,0,0,0,-43.819213,172.655654,0.0,A,3,1,12,13.6,10.0,-0.017,0.993,-0.152,0.5,9.0,1.0,101432,27.7,28.4,0,4.15,37.7,0.6883016109155947,0.004709908381518746
33.996,0,0,0,-43.819213,172.655654,0.0,A,3,1,12,13.6,10.0,-0.045,0.988,-0.143,-1.2,4.1,0.0,101432,27.2,28.4,0,4.14,41.5,0.6883016109155947,-0.0006912389056122903
34.046,0,0,0,-43.819213,172.655654,0.0,A,3,1,12,13.6,10.0,-0.087,0.995,-0.104,-1.4,-9.6,0.4,101432,27.2,28.3,0,4.11,70.8,0.6883016109155947,0.004196195969691896
34.096,0,0,0,-43.819213,172.655654,0.0,A,3,1,12,13.6,10.0,-0.085,1.001,-0.077,-2.1,-1.8,-0.1,101432,27.2,28.1,0,4.15,42.9,0.6883016109155947,0.007549006252301371
34.146,0,0,0,-43.819213,172.655654,0.0,A,3,1,12,13.6,10.0,-0.048,0.991,-0.099,-0.9,2.3,1.3,101435,27.0,28.1,0,4.14,37.7,0.43018335569223315,-0.002911237652334253
34.196,0,0,0,-43.819213,172.655654,0.0,A,3,1,12,13.6,10.0,-0.024,0.992,-0.137,-1.0,2.6,1.1,101435,27.0,28.2,0,4.14,39.6,0.43018335569223315,0.0017030498106711534
34.246,0,0,0,-43.819213,172.655654,0.0,A,3,1,12,13.6,10.0,-0.073,0.995,-0.07,-1.0,-5.5,-0.1,101435,27.0,27.8,0,4.14,39.6,0.43018335569223315,0.00012699193652410123
34.296,0,0,0,-43.819213,172.655654,0.0,A,3,1,12,13.6,10.0,-0.021,0.997,-0.072,-0.9,-2.1,-1.3,101435,26.7,27.8,0,4.14,44.3,0.43018335569223315,-0.0001830167475649347
34.346,0,0,0,-43.819213,172.655654,0.0,A,3,1,12,13.6,10.0,-0.058,0.993,-0.097,0.3,-3.1,0.0,101435,26.7,28.5,0,4.15,37.7,0.43018335569223315,-0.0005891735627435724
34.396,0,0,0,-43.819213,172.655654,0.0,A,3,1,12,13.6,10.0,-0.098,0.992,-0.086,1.2,2.0,0.3,101438,27.0,27.8,0,4.12,71.2,0.17207128189720144,0.0005318585632343442
34.446,0,0,0,-43.819213,172.655654,0.0,A,3,1,12,13.6,10.0,-0.06,0.991,-0.139,0.3,9.1,0.2,101438,26.5,27.8,0,4.14,40.5,0.17207128189720144,0.0024978802970108127
34.496,0,0,0,-43.819213,172.655654,0.0,A,3,1,12,13.6,10.0,-0.033,0.991,-0.164,-1.6,0.5,0.7,101438,26.5,28.3,0,4.14,43.3,0.17207128189720144,0.0050203978029499385
34.546,0,0,0,-43.819213,172.655654,0.0,A,3,1,12,13.6,10.0,-0.087,0.992,-0.109,-2.6,-10.3,1.0,101438,27.2,28.0,0,4.11,72.2,0.17207128189720144,0.0017554591815309717
34.596,0,0,0,-43.819213,172.655654,0.0,A,3,1,12,13.6,10.0,-0.029,1.0,-0.083,-2.3,-4.0,0.7,101438,27.0,28.0,0,4.15,49.8,0.17207128189720144,0.0038575596169010407
34.646,0,0,0,-43.819213,172.655654,0.0,A,3,1,12,13.6,10.0,-0.017,0.995,-0.074,-2.2,4.5,-0.2,101432,27.0,28.2,0,4.14,48.0,0.6883016109155947,-0.002107220188461323
34.696,0,0,0,-43.819213,172.655654,0.0,A,3,1,12,13.6,10.0,-0.093,0.995,-0.07,-1.2,-4.1,0.3,101432,27.2,28.3,0,4.14,46.1,0.6883016109155947,0.0017854061624176243
34.746,0,0,0,-43.819213,172.655654,0.0,A,3,1,12,13.6,10.0,-0.07,0.994,-0.028,0.1,-4.0,0.6,101432,27.0,28.3,0,4.12,75.4,0.6883016109155947,-0.0031449453405976158
34.796,0,0,0,-43.819213,172.655654,0.0,A,3,1,12,13.6,10.0,-0.097,0.998,-0.058,1.8,4.0,1.2,101432,27.0,28.2,0,4.14,48.9,0.6883016109155947,0.004378912562385429
34.859,0,0,0,-43.819213,172.655654,0.0,A,3,1,12,13.6,10.0,-0.137,0.981,-0.217,-1.5,14.1,0.8,101432,27.0,28.4,0,4.14,41.0,0.6883016109155947,0.01401134115945668
34.902,0,0,0,-43.819213,172.655654,0.0,A,3,1,12,13.6,10.0,-0.057,0.996,-0.197,0.5,2.9,1.4,101433,27.2,28.4,0,4.11,75.0,0.6022615056609358,0.01689429145806498
34.95,0,0,0,-43.819213,172.655654,0.0,A,3,1,12,13.6,10.0,0.02,1.0,-0.075,-1.6,-2.0,1.2,101433,26.7,27.9,0,4.15,41.0,0.6022615056609358,0.003007976040071192
35.0,0,0,0,-43.819213,172.655654,0.0,A,3,1,12,13.6,10.0,-0.073,0.98,-0.104,-2.1,-7.6,0.2,101433,26.7,28.0,0,4.17,43.3,0.6022615056609358,-0.011797085614497882
35.05,0,0,0,-43.819213,172.655654,0.0,A,3,1,12,13.6,10.0,-0.119,0.996,-0.075,-2.0,-2.2,-1.0,101433,27.0,28.0,0,4.15,41.5,0.6022615056609358,0.0058836910895812
35.1,0,0,0,-43.819213,172.655654,0.0,A,3,1,12,13.6,10.0,-0.01,1.001,-0.007,0.4,-0.7,1.5,101433,27.7,28.3,0,4.1,54.5,0.6022615056609358,0.0010744228078147788
35.15,0,0,0,-43.819213,172.655654,0.0,A,3,1,12,13.6,10.0,-0.035,1.003,-0.073,0.2,12.1,1.0,101429,27.7,28.4,0,4.16,42.9,0.9464260478982991,0.006261894339639529
35.2,0,0,0,-43.819213,172.655654,0.0,A,3,1,12,13.6,10.0,-0.083,0.991,-0.181,1.2,5.4,1.0,101429,27.2,28.4,0,4.14,43.8,0.9464260478982991,0.010807103259568462
35.25,0,0,0,-43.819213,172.655654,0.0,A,3,1,12,13.6,10.0,0.01,0.996,-0.114,-1.2,-4.9,0.0,101429,27.2,28.4,0,4.12,72.2,0.9464260478982991,0.0025527417547668296
35.3,0,0,0,-43.819213,172.655654,0.0,A,3,1,12,13.6,10.0,-0.03,0.996,-0.066,-2.0,-9.7,-0.2,101429,27.2,28.2,0,4.15,42.9,0.9464260478982991,-0.001364931519025836
35.35,0,0,0,-43.819213,172.655654,0.0,A,3,1,12,13.6,10.0,-0.095,0.988,-0.113,-1.5,2.7,0.3,101429,27.2,28.2,0,4.15,41.5,0.9464260478982991,-0.0010315320291636176
35.4,0,0,0,-43.819213,172.655654,0.0,A,3,1,12,13.6,10.0,-0.052,1.002,-0.09,-0.2,4.8,1.0,101425,27.5,28.4,0,4.14,44.3,1.2906015805207807,0.007376791473776123
35.45,0,0,0,-43.819213,172.655654,0.0,A,3,1,12,13.6,10.0,-0.049,1.005,-0.086,0.4,-1.4,1.2,101425,27.5,28.0,0,4.14,40.5,1.2906015805207807,0.009862366859959781
35.5,0,0,0,-43.819213,172.655654,0.0,A,3,1,12,13.6,10.0,-0.01,0.995,-0.094,-0.1,4.1,0.1,101425,27.0,28.0,0,4.14,44.7,1.2906015805207807,-0.0005196350102719682
35.55,0,0,0,-43.819213,172.655654,0.0,A,3,1,12,13.6,10.0,-0.08,0.985,-0.125,-1.0,4.2,-0.1,101425,27.2,28.2,0,4.14,47.1,1.2906015805207807,-0.0038825370469605103
35.6,0,0,0,-43.819213,172.655654,0.0,A,3,1,12,13.6,10.0,-0.009,0.985,-0.129,-1.2,-8.7,0.5,101428,27.2,28.0,0,4.11,76.4,1.03246890067285,-0.006547937744351917
35.65,0,0,0,-43.819213,172.655654,0.0,A,3,1,12,13.6,10.0,-0.102,1.001,-0.033,-1.3,-1.6,-0.1,101428,26.7,28.0,0,4.15,47.5,1.03246890067285,0.006724391280950259
35.7,0,0,0,-43.819213,172.655654,0.0,A,3,1,12,13.6,10.0,-0.041,0.998,-0.103,-0.7,4.8,0.5,101428,27.2,28.1,0,4.15,47.5,1.03246890067285,0.004138436670960255
35.75,0,0,0,-43.819213,172.655654,0.0,A,3,1,12,13.6,10.0,-0.061,0.995,-0.123,-1.1,-2.9,0.8,101428,27.2,28.2,0,4.14,43.8,1.03246890067285,0.004427697746333559
35.801,0,0,0,-43.819213,172.655654,0.0,A,3,1,12,13.6,10.0,-0.023,0.997,-0.119,-0.4,0.4,0.9,101428,27.2,28.2,0,4.16,44.3,1.03246890067285,0.004340081844790289
35.864,0,0,0,-43.819213,172.655654,0.0,A,3,1,12,13.6,10.0,-0.037,0.995,-0.084,-0.7,-0.5,-0.1,101426,26.7,27.9,0,4.14,41.5,1.204556666976452,-0.0007753005454679274
35.903,0,0,0,-43.819213,172.655654,0.0,A,3,1,12,13.6,10.0,-0.04,0.99,-0.104,-1.0,-5.3,-0.4,101426,26.7,28.2,0,4.15,42.4,1.204556666976452,-0.0037490276039876536
35.952,0,0,0,-43.819213,172.655654,0.0,A,3,1,12,13.6,10.0,-0.026,0.987,-0.156,-1.2,-1.8,-0.2,101426,27.0,28.2,0,4.11,68.4,1.204556666976452,-0.0004095838794772044
36.002,0,0,0,-43.819213,172.655654,0.0,A,3,1,12,13.6,10.0,-0.138,0.999,-0.078,-0.6,-4.8,0.5,101426,27.0,28.0,0,4.14,45.2,1.204556666976452,0.011498393473761359
36.052,0,0,0,-43.819213,172.655654,0.0,A,3,1,12,13.6,10.0,-0.019,1.001,-0.079,-1.2,1.2,0.5,101426,27.0,28.4,0,4.15,41.5,1.204556666976452,0.004292288131298783
36.102,0,0,0,-43.819213,172.655654,0.0,A,3,1,12,13.6,10.0,-0.06,1.0,-0.114,0.3,10.4,1.8,101427,27.2,28.4,0,4.11,74.0,1.1185124403604751,0.008263854355594846
36.152,0,0,0,-43.819213,172.655654,0.0,A,3,1,12,13.6,10.0,-0.103,0.987,-0.083,-0.5,-0.6,0.9,101427,26.5,27.7,0,4.11,71.7,1.1185124403604751,-0.0041752162152219885
36.202,0,0,0,-43.819213,172.655654,0.0,A,3,1,12,13.6,10.0,0.012,0.998,-0.087,-0.9,-1.7,-0.4,101427,26.5,28.2,0,4.15,46.6,1.1185124403604751,0.0018567761910881497
36.252,0,0,0,-43.819213,172.655654,0.0,A,3,1,12,13.6,10.0,-0.077,0.998,-0.105,-0.1,0.9,-0.2,101427,26.7,28.2,0,4.15,40.5,1.1185124403604751,0.0064581461739976476
36.302,0,0,0,-43.819213,172.655654,0.0,A,3,1,12,13.6,10.0,-0.075,0.986,-0.139,-0.7,-3.8,0.1,101427,27.0,27.9,0,4.12,42.4,1.1185124403604751,-0.0014300224821497398
36.352,0,0,0,-43.819213,172.655654,0.0,A,3,1,12,13.6,10.0,-0.048,1.001,-0.104,-1.2,-0.3,0.5,101432,27.0,28.4,0,4.15,42.9,0.6883016109155947,0.007532133482599956
36.402,0,0,0,-43.819213,172.655654,0.0,A,3,1,12,13.6,10.0,-0.071,0.994,-0.072,-1.7,-2.7,0.5,101432,27.2,28.4,0,4.14,42.4,0.6883016109155947,-0.0008698783441668523
36.452,0,0,0,-43.819213,172.655654,0.0,A,3,1,12,13.6,10.0,-0.034,0.996,-0.11,-1.2,-0.6,0.5,101432,27.2,28.4,0,4.11,71.2,0.6883016109155947,0.0026325348800526616
36.502,0,0,0,-43.819213,172.655654,0.0,A,3,1,12,13.6,10.0,-0.083,0.999,-0.106,-0.9,-0.1,0.3,101432,27.2,28.2,0,4.14,43.3,0.6883016109155947,0.008030753499118193
36.552,0,0,0,-43.819213,172.655654,0.0,A,3,1,12,13.6,10.0,-0.027,0.994,-0.081,-0.7,-0.5,0.4,101432,27.2,28.2,0,4.14,48.0,0.6883016109155947,-0.0023397371850475412
36.602,0,0,0,-43.819213,172.655654,0.0,A,3,1,12,13.6,10.0,-0.049,1.0,-0.099,0.1,-0.5,-0.1,101426,26.7,27.9,0,4.14,51.2,1.204556666976452,0.00608250158722079
36.652,0,0,0,-43.819213,172.655654,0.0,A,3,1,12,13.6,10.0,-0.071,0.985,-0.103,-0.4,-2.9,0.4,101426,26.7,28.2,0,4.12,72.6,1.204556666976452,-0.0070876171584927095
36.702,0,0,0,-43.819213,172.655654,0.0,A,3,1,12,13.6,10.0,-0.047,0.99,-0.133,-0.8,-2.1,0.4,101426,27.0,28.2,0,4.14,50.3,1.204556666976452,-1.000000500073206e-06
36.752,0,0,0,-43.819213,172.655654,0.0,A,3,1,12,13.6,10.0,-0.119,1.001,-0.071,-1.0,1.2,0.4,101426,26.7,28.2,0,4.15,46.6,1.204556666976452,0.010545892080117136
36.802,0,0,0,-43.819213,172.655654,0.0,A,3,1,12,13.6,10.0,-0.033,0.996,-0.11,-1.1,5.0,1.6,101426,26.7,28.1,0,4.11,74.5,1.204556666976452,0.0025991222816825754
36.866,0,0,0,-43.819213,172.655654,0.0,A,3,1,12,13.6,10.0,-0.03,1.0,-0.084,-1.7,-3.3,0.2,101427,27.0,28.1,0,4.15,41.5,1.1185124403604751,0.003970119077256085
36.906,0,0,0,-43.819213,172.655654,0.0,A,3,1,12,13.6,10.0,-0.017,0.991,-0.109,-1.1,0.5,0.2,101427,26.7,28.1,0,4.14,45.7,1.1185124403604751,-0.002878643293605876
36.955,0,0,0,-43.819213,172.655654,0.0,A,3,1,12,13.6,10.0,-0.021,1.002,-0.083,-0.5,-3.6,0.1,101427,26.7,28.5,0,4.11,70.3,1.1185124403604751,0.005651032913505105
37.005,0,0,0,-43.819213,172.655654,0.0,A,3,1,12,13.6,10.0,-0.093,0.996,-0.096,-0.2,-2.2,-0.7,101427,27.5,28.5,0,4.14,41.9,1.1185124403604751,0.004928355655267502
37.055,0,0,0,-43.819213,172.655654,0.0,A,3,1,12,13.6,10.0,-0.081,0.991,-0.106,-0.2,-3.8,-0.1,101427,27.2,28.3,0,4.15,41.0,1.1185124403604751,-6.100186061352986e-05
37.105,0,0,0,-43.819213,172.655654,0.0,A,3,1,12,13.6,10.0,-0.057,0.995,-0.136,-0.5,4.7,0.4,101426,27.2,28.2,0,4.14,43.8,1.204556666976452,0.005867784552224364
37.155,0,0,0,-43.819213,172.655654,0.0,A,3,1,12,13.6,10.0,-0.084,0.991,-0.114,-0.4,2.4,0.9,101426,26.7,28.2,0,4.15,38.2,1.204556666976452,0.0010659318945980267
37.205,0,0,0,-43.819213,172.655654,0.0,A,3,1,12,13.6,10.0,-0.035,1.001,-0.09,-1.1,-3.0,0.6,101426,26.5,27.9,0,4.14,41.9,1.204556666976452,0.005647055382751898
37.255,0,0,0,-43.819213,172.655654,0.0,A,3,1,12,13.6,10.0,-0.038,0.988,-0.078,-1.0,2.4,0.6,101426,26.5,28.3,0,4.15,40.1,1.204556666976452,-0.008197600325548726
37.305,0,0,0,-43.819213,172.655654,0.0,A,3,1,12,13.6,10.0,-0.061,0.99,-0.107,-0.4,-1.2,0.6,101426,27.2,28.3,0,4.11,72.6,1.204556666976452,-0.0023678032461061926
37.355,0,0,0,-43.819213,172.655654,0.0,A,3,1,12,13.6,10.0,-0.061,0.997,-0.077,-0.2,2.1,0.0,101429,26.7,27.9,0,4.16,37.7,0.9464260478982991,0.0018278295196236805
37.405,0,0,0,-43.819213,172.655654,0.0,A,3,1,12,13.6,10.0,-0.049,0.996,-0.093,0.4,4.3,0.4,101429,26.7,28.2,0,4.15,41.0,0.9464260478982991,0.0015318267533988017
