timestamp,pdop,hdop,vdop,lati,longi,gps_speed,gps_mode,gps_fix_type,gps_fix_quality,gps_sats_tracked,gps_alt,gps_height,accel_x_g,accel_y_g,accel_z_g,gyro_x_dps,gyro_y_dps,gyro_z_dps,pressure_pa,tc_temp_C,cjc_temp_C,oc_sc_flags,batt_voltage_V,batt_current_mA
2869,0,0,0,-43.529731,172.578979,0,A,1,0,0,138.7,11.3,-0.058,0.163,1.03,18.5,-4.4,-8.2,101448,2047.7,25.2,1,4.13,76.8
2919,0,0,0,-43.529731,172.578979,0,A,1,0,0,138.7,11.3,-0.139,0.141,0.983,12.4,-3.6,-3.3,101448,2047.7,25.2,1,4.17,43.3
2969,0,0,0,-43.529731,172.578979,0,A,1,0,0,138.7,11.3,-0.048,0.207,0.983,3.8,-10.5,-1.2,101448,2047.7,25.5,1,4.14,76.8
3019,0,0,0,-43.529731,172.578979,0,A,1,0,0,138.7,11.3,-0.054,0.16,1.016,13.8,-11.1,2.4,101448,2047.7,25.7,1,4.17,44.3
3069,0,0,0,-43.529731,172.578979,0,A,1,0,0,138.7,11.3,-0.086,0.195,0.96,-5.4,-8.7,4.8,101448,2047.7,25.7,1,4.17,48.9
3119,0,0,0,-43.529731,172.578979,0,A,1,0,0,138.7,11.3,-0.039,0.175,1.021,-7.8,-5.7,-5.9,101446,2047.7,25.4,1,4.13,77.7
3169,0,0,0,-43.529731,172.578979,0,A,1,0,0,138.7,11.3,-0.053,0.198,0.971,-2.9,-8.5,-6.3,101446,2047.7,25.4,1,4.17,45.2
3219,0,0,0,-43.529731,172.578979,0,A,1,0,0,138.7,11.3,-0.077,0.192,1.025,5.6,-0.3,-9,101446,2047.7,25.4,1,4.17,46.6
3269,0,0,0,-43.529731,172.578979,0,A,1,0,0,138.7,11.3,-0.022,0.163,0.969,1.6,-4.3,-7.4,101446,2047.7,25.5,1,4.12,79.6
3319,0,0,0,-43.529731,172.578979,0,A,1,0,0,138.7,11.3,-0.083,0.19,0.99,7.6,-1.7,-3.7,101446,2047.7,25.2,1,4.17,47.1
3369,0,0,0,-43.529731,172.578979,0,A,1,0,0,138.7,11.3,-0.081,0.192,0.982,1.9,-1.2,-6.5,101446,2047.7,25.2,1,4.15,70.3
3419,0,0,0,-43.529731,172.578979,0,A,1,0,0,138.7,11.3,-0.034,0.235,0.942,4.6,0.6,-1.3,101446,2047.7,25.3,1,4.18,39.1
3469,0,0,0,-43.529731,172.578979,0,A,1,0,0,138.7,11.3,-0.058,0.21,1.032,6.3,-2.6,-6.8,101446,2047.7,25.5,1,4.13,72.6
3519,0,0,0,-43.529731,172.578979,0,A,1,0,0,138.7,11.3,-0.07,0.215,0.988,4,-2.3,-1.3,101446,2047.7,25.5,1,4.18,40.5
3569,0,0,0,-43.529731,172.578979,0,A,1,0,0,138.7,11.3,-0.047,0.217,1.007,2.7,-2.8,-2.1,101446,2047.7,25.3,1,4.17,44.7
3619,0,0,0,-43.529731,172.578979,0,A,1,0,0,138.7,11.3,-0.06,0.248,0.981,2.6,-1.8,0.9,101446,2047.7,25.7,1,4.14,65.7
3669,0,0,0,-43.529731,172.578979,0,A,1,0,0,138.7,11.3,-0.038,0.226,0.982,6.1,-0.5,-6.8,101446,2047.7,25.7,1,4.16,40.5
3719,0,0,0,-43.529731,172.578979,0,A,1,0,0,138.7,11.3,-0.036,0.223,1,10.7,-2.1,-4,101446,2047.7,25.4,1,4.17,41
3770,0,0,0,-43.529731,172.578979,0,A,1,0,0,138.7,11.3,-0.047,0.243,0.973,3,2,-6.1,101446,2047.7,25.2,1,4.16,48.4
3830,0,0,0,-43.529731,172.578979,0,A,1,0,0,138.7,11.3,-0.077,0.236,0.945,-12.5,-11.1,-5.4,101446,2047.7,24.9,1,4.16,45.7
3870,0,0,0,-43.529731,172.578979,0,A,1,0,0,138.7,11.3,-0.034,0.254,0.981,-7.9,-5.2,-1.9,101446,2047.7,24.9,1,4.16,46.1
3919,0,0,0,-43.529731,172.578979,0,A,1,0,0,138.7,11.3,-0.076,0.284,0.991,-1.2,-6.3,5.7,101446,2047.7,25.3,1,4.14,75.9
3969,0,0,0,-43.529731,172.578979,0,A,1,0,0,138.7,11.3,-0.061,0.299,0.903,-13.7,2.6,2.3,101446,2047.7,25.3,1,4.14,79.6
4019,0,0,0,-43.529731,172.578979,0,A,1,0,0,138.7,11.3,-0.11,0.303,1.052,-11.2,-8.1,-1.3,101446,2047.7,25.3,1,4.18,45.7
4069,0,0,0,-43.529731,172.578979,0,A,1,0,0,138.7,11.3,-0.045,0.251,0.843,-18,-4.5,13.8,101446,2047.7,25.4,1,4.17,50.8
4119,0,0,0,-43.529731,172.578979,0,A,1,0,0,138.7,11.3,-0.226,0.223,0.75,-18.8,-23.8,35.8,101446,2047.7,25.4,1,4.15,46.1
4169,0,0,0,-43.529731,172.578979,0,A,1,0,0,138.7,11.3,-0.013,0.375,0.973,-46.2,-45.9,45.6,101446,2047.7,25.7,1,4.14,78.2
4219,0,0,0,-43.529731,172.578979,0,A,1,0,0,138.7,11.3,-0.1,0.387,0.919,-69.8,-52,56.5,101446,2047.7,25.3,1,4.17,43.8
4269,0,0,0,-43.529731,172.578979,0,A,1,0,0,138.7,11.3,0.043,0.284,0.845,-45.2,-30.4,49.3,101446,2047.7,25.4,1,4.16,46.6
4319,0,0,0,-43.529731,172.578979,0,A,1,0,0,138.7,11.3,0.122,0.219,0.876,-19.3,13.8,42.1,101446,2047.7,25.4,1,4.13,80.5
4369,0,0,0,-43.529731,172.578979,0,A,1,0,0,138.7,11.3,-0.011,0.047,0.722,-18.6,51.3,39.6,101446,2047.7,25.2,1,4.18,44.7
4419,0,0,0,-43.529731,172.578979,0,A,1,0,0,138.7,11.3,-0.028,-0.081,1.105,13.4,57.4,86.6,101446,2047.7,25.4,1,4.14,81.5
4469,0,0,0,-43.529731,172.578979,0,A,1,0,0,138.7,11.3,-0.019,-0.181,0.996,-12.3,44.6,42.1,101446,2047.7,25.4,1,4.14,68.9
4519,0,0,0,-43.529731,172.578979,0,A,1,0,0,138.7,11.3,0.146,-0.206,1.249,2.7,28,76.3,101446,2047.7,25.3,1,4.19,39.6
4569,0,0,0,-43.529731,172.578979,0,A,1,0,0,138.7,11.3,-0.071,-0.352,0.858,38.5,39.3,20.1,101447,2047.7,25.6,1,4.17,40.5
4619,0,0,0,-43.529731,172.578979,0,A,1,0,0,138.7,11.3,-0.167,-0.163,1.146,46.5,48.8,31.6,101447,2047.7,25.6,1,4.17,38.7
4669,0,0,0,-43.529731,172.578979,0,A,1,0,0,138.7,11.3,-0.27,-0.121,1.07,19.7,36.3,38.4,101447,2047.7,25.4,1,4.14,68.9
4719,0,0,0,-43.529731,172.578979,0,A,1,0,0,138.7,11.3,-0.263,-0.045,0.907,-1.1,41.2,37.3,101447,2047.7,25.5,1,4.17,44.3
4770,0,0,0,-43.529731,172.578979,0,A,1,0,0,138.7,11.3,-0.277,-0.105,0.927,-6,30.1,9.1,101447,2047.7,25.5,1,4.16,48.4
4830,0,0,0,-43.529731,172.578979,0,A,1,0,0,138.7,11.3,-0.275,-0.067,0.888,-40.9,36.2,9.8,101448,2047.7,25.4,1,4.18,43.3
4870,0,0,0,-43.529731,172.578979,0,A,1,0,0,138.7,11.3,-0.35,0,1.027,-38.7,26.5,16.2,101448,2047.7,25.3,1,4.16,47.1
4919,0,0,0,-43.529731,172.578979,0,A,1,0,0,138.7,11.3,-0.274,-0.154,0.906,-30.2,34.4,20.2,101448,2047.7,25.3,1,4.16,45.7
4969,0,0,0,-43.529731,172.578979,0,A,1,0,0,138.7,11.3,-0.386,-0.075,1.019,5.2,38,24.9,101448,2047.7,25.4,1,4.12,79.1
5019,0,0,0,-43.529731,172.578979,0,A,1,0,0,138.7,11.3,-0.359,-0.055,0.958,27.1,23.5,18.2,101448,2047.7,25.2,1,4.16,48
5069,0,0,0,-43.529731,172.578979,0,A,1,0,0,138.7,11.3,-0.348,0.043,1.021,19.9,38.5,26.3,101449,2047.7,25.2,1,4.16,46.1
5119,0,0,0,-43.529731,172.578979,0,A,1,0,0,138.7,11.3,-0.35,-0.05,0.84,47.1,29.3,25.8,101449,2047.7,25.4,1,4.17,42.4
5169,0,0,0,-43.529731,172.578979,0,A,1,0,0,138.7,11.3,-0.469,0.207,1.031,28.4,56.2,34,101449,2047.7,25.4,1,4.13,77.7
5219,0,0,0,-43.529731,172.578979,0,A,1,0,0,138.7,11.3,-0.532,0.107,0.926,39.7,46.1,20.1,101449,2047.7,25.4,1,4.17,46.1
5269,0,0,0,-43.529731,172.578979,0,A,1,0,0,138.7,11.3,-0.605,0.135,0.861,17.7,38.8,19.3,101449,2047.7,25.4,1,4.16,49.4
5319,0,0,0,-43.529731,172.578979,0,A,1,0,0,138.7,11.3,-0.611,0.198,0.836,38.5,-3.6,45.8,101450,2047.7,25.3,1,4.13,76.8
5369,0,0,0,-43.529731,172.578979,0,A,1,0,0,138.7,11.3,-0.488,0.246,0.937,12.1,14.1,19.4,101450,2047.7,25.3,1,4.17,47.5
5419,0,0,0,-43.529731,172.578979,0,A,1,0,0,138.7,11.3,-0.567,0.307,0.705,-8.8,8.6,3.5,101450,2047.7,25.4,1,4.18,41.5
5469,0,0,0,-43.529731,172.578979,0,A,1,0,0,138.7,11.3,-0.408,0.236,0.836,-5.1,-7,5.4,101450,2047.7,25.2,1,4.12,74
5519,0,0,0,-43.529731,172.578979,0,A,1,0,0,138.7,11.3,-0.364,0.181,0.902,-16.8,6.5,6.3,101450,2047.7,25.2,1,4.14,76.4
5569,0,0,0,-43.529731,172.578979,0,A,1,0,0,138.7,11.3,-0.437,0.293,0.885,-18.7,3.2,1.3,101449,2047.7,25.1,1,4.18,41.5
5619,0,0,0,-43.529731,172.578979,0,A,1,0,0,138.7,11.3,-0.433,0.291,0.927,-24,9.2,-10.2,101449,2047.7,25.4,1,4.17,38.7
5669,0,0,0,-43.529731,172.578979,0,A,1,0,0,138.7,11.3,-0.485,0.196,0.848,-34.1,16.8,5.2,101449,2047.7,25.4,1,4.14,70.3
5719,0,0,0,-43.529731,172.578979,0,A,1,0,0,138.7,11.3,-0.51,0.232,0.829,-14.3,0,15.6,101449,2047.7,25.1,1,4.17,43.8
5781,0,0,0,-43.529731,172.578979,0,A,1,0,0,138.7,11.3,-0.521,0.232,0.889,-16.6,-5.1,20.6,101449,2047.7,25.4,1,4.15,46.6
5821,0,0,0,-43.529731,172.578979,0,A,1,0,0,138.7,11.3,-0.478,0.234,0.863,-19,18.5,17.3,101449,2047.7,25.4,1,4.16,44.7
5870,0,0,0,-43.529731,172.578979,0,A,1,0,0,138.7,11.3,-0.518,0.207,0.769,-22.6,45.3,16.8,101449,2047.7,25.4,1,4.13,50.8
5920,0,0,0,-43.529731,172.578979,0,A,1,0,0,138.7,11.3,-0.639,0.272,0.734,1,24.5,14.3,101449,2047.7,25.6,1,4.16,45.2
5970,0,0,0,-43.529731,172.578979,0,A,1,0,0,138.7,11.3,-0.558,0.229,0.741,-6.3,-8.6,25.5,101449,2047.7,25.6,1,4.16,49.4
6020,0,0,0,-43.529731,172.578979,0,A,1,0,0,138.7,11.3,-0.476,0.229,0.778,-4.6,-3.6,26.8,101449,2047.7,25.4,1,4.13,72.6
6070,0,0,0,-43.529731,172.578979,0,A,1,0,0,138.7,11.3,-0.528,0.231,0.759,-13.7,3.5,23.3,101449,2047.7,25.4,1,4.16,45.7
6120,0,0,0,-43.529731,172.578979,0,A,1,0,0,138.7,11.3,-0.51,0.196,0.746,-22.1,0.5,32.7,101449,2047.7,25.4,1,4.18,41.5
6170,0,0,0,-43.529731,172.578979,0,A,1,0,0,138.7,11.3,-0.599,0.226,0.797,-18.6,-2.4,25,101449,2047.7,25.6,1,4.13,79.6
6220,0,0,0,-43.529731,172.578979,0,A,1,0,0,138.7,11.3,-0.547,0.25,0.866,-25.1,-6.2,37.8,101449,2047.7,25.4,1,4.16,47.1
6270,0,0,0,-43.529731,172.578979,0,A,1,0,0,138.7,11.3,-0.527,0.18,0.98,-24.6,4.3,30.2,101449,2047.7,25.4,1,4.15,48
6320,0,0,0,-43.529731,172.578979,0,A,1,0,0,138.7,11.3,-0.624,0.226,0.956,-19.5,2.1,25.3,101449,2047.7,25.6,1,4.15,48.4
6370,0,0,0,-43.529731,172.578979,0,A,1,0,0,138.7,11.3,-0.496,0.153,0.938,-2.3,7.4,41.3,101449,2047.7,25.5,1,4.13,77.3
6420,0,0,0,-43.529731,172.578979,0,A,1,0,0,138.7,11.3,-0.576,0.189,0.87,-5.6,5.8,40.4,101449,2047.7,25.5,1,4.17,45.7
6470,0,0,0,-43.529731,172.578979,0,A,1,0,0,138.7,11.3,-0.533,0.167,0.85,-11.9,8.2,29.9,101449,2047.7,25.4,1,4.16,42.9
6520,0,0,0,-43.529731,172.578979,0,A,1,0,0,138.7,11.3,-0.489,0.202,0.865,-17.4,2.9,39.8,101449,2047.7,25.6,1,4.14,63.8
6570,0,0,0,-43.529731,172.578979,0,A,1,0,0,138.7,11.3,-0.503,0.269,0.826,-19.7,28.7,21.4,101449,2047.7,25.6,1,4.17,39.6
6620,0,0,0,-43.529731,172.578979,0,A,1,0,0,138.7,11.3,-0.575,0.222,0.764,-18.4,18.7,25.9,101449,2047.7,25.2,1,4.17,37.7
6670,0,0,0,-43.529731,172.578979,0,A,1,0,0,138.7,11.3,-0.563,0.302,0.778,-12.7,11.6,19.5,101449,2047.7,25.7,1,4.17,41
6720,0,0,0,-43.529731,172.578979,0,A,1,0,0,138.7,11.3,-0.581,0.294,0.868,-16,21.5,4.9,101449,2047.7,25.7,1,4.13,45.2
6782,0,0,0,-43.529731,172.578979,0,A,1,0,0,138.7,11.3,-0.529,0.236,0.799,1.3,26.7,9.9,101450,2047.7,25.1,1,4.17,47.5
6821,0,0,0,-43.529731,172.578979,0,A,1,0,0,138.7,11.3,-0.651,0.25,0.704,0.7,15,9.6,101450,2047.7,25.4,1,4.15,46.6
6871,0,0,0,-43.529731,172.578979,0,A,1,0,0,138.7,11.3,-0.58,0.232,0.737,9.8,-5.9,22.9,101450,2047.7,25.4,1,4.14,78.7
6921,0,0,0,-43.529731,172.578979,0,A,1,0,0,138.7,11.3,-0.567,0.297,0.741,3.6,-1.5,16.2,101450,2047.7,25,1,4.16,46.6
6971,0,0,0,-43.529731,172.578979,0,A,1,0,0,138.7,11.3,-0.624,0.247,0.732,7.4,-13.3,17,101450,2047.7,25.4,1,4.16,49.4
7021,0,0,0,-43.529731,172.578979,0,A,1,0,0,138.7,11.3,-0.558,0.332,0.788,0.4,-0.4,20.7,101450,2047.7,25.4,1,4.16,44.7
7071,0,0,0,-43.529731,172.578979,0,A,1,0,0,138.7,11.3,-0.531,0.347,0.839,5.1,-19,7.3,101450,2047.7,25.4,1,4.13,78.7
7121,0,0,0,-43.529731,172.578979,0,A,1,0,0,138.7,11.3,-0.491,0.375,0.826,-1.3,0.4,9.3,101450,2047.7,25.4,1,4.17,45.7
7171,0,0,0,-43.529731,172.578979,0,A,1,0,0,138.7,11.3,-0.551,0.342,0.817,0,-5.1,-14,101450,2047.7,25.5,1,4.17,48
7221,0,0,0,-43.529731,172.578979,0,A,1,0,0,138.7,11.3,-0.562,0.302,0.857,0.2,-5.6,-6.6,101450,2047.7,25.5,1,4.13,74
7271,0,0,0,-43.529731,172.578979,0,A,1,0,0,138.7,11.3,-0.579,0.318,0.774,2.9,-6.6,-1.8,101450,2047.7,25.5,1,4.17,48
7321,0,0,0,-43.529731,172.578979,0,A,1,0,0,138.7,11.3,-0.471,0.314,0.781,7.2,-18,12,101450,2047.7,25.4,1,4.17,42.9
7371,0,0,0,-43.529731,172.578979,0,A,1,0,0,138.7,11.3,-0.494,0.343,0.764,-1,-2.7,-5.4,101450,2047.7,25.4,1,4.13,75.4
7421,0,0,0,-43.529731,172.578979,0,A,1,0,0,138.7,11.3,-0.525,0.304,0.805,1.8,-18.7,1.4,101450,2047.7,25.1,1,4.17,45.7
7471,0,0,0,-43.529731,172.578979,0,A,1,0,0,138.7,11.3,-0.427,0.341,0.848,-10.4,-22.4,7.7,101450,2047.7,25.5,1,4.17,43.8
7521,0,0,0,-43.529731,172.578979,0,A,1,0,0,138.7,11.3,-0.475,0.304,0.871,-5,0.2,-4.1,101450,2047.7,25.5,1,4.17,40.5
7571,0,0,0,-43.529731,172.578979,0,A,1,0,0,138.7,11.3,-0.512,0.371,0.761,-0.4,0.2,6,101450,2047.7,25.4,1,4.14,69.4
7621,0,0,0,-43.529731,172.578979,0,A,1,0,0,138.7,11.3,-0.473,0.322,0.864,0.3,-7.6,-12.6,101450,2047.7,25.1,1,4.17,39.6
7671,0,0,0,-43.529731,172.578979,0,A,1,0,0,138.7,11.3,-0.522,0.277,0.875,-6.9,-2,-5.9,101450,2047.7,25.1,1,4.17,39.6
7721,0,0,0,-43.529731,172.578979,0,A,1,0,0,138.7,11.3,-0.495,0.278,0.908,-5.7,-16.6,14,101450,2047.7,25.5,1,4.14,73.1
7782,0,0,0,-43.529731,172.578979,0,A,1,0,0,138.7,11.3,-0.435,0.161,0.779,-18.2,46.1,19.9,101449,2047.7,25.6,1,4.18,46.6
7822,0,0,0,-43.529731,172.578979,0,A,1,0,0,138.7,11.3,-0.521,0.305,0.849,6.1,-13,17.3,101449,2047.7,25.6,1,4.17,44.7
7871,0,0,0,-43.529731,172.578979,0,A,1,0,0,138.7,11.3,-0.439,0.311,0.935,9.3,6.1,-10.4,101449,2047.7,25.4,1,4.16,46.6
7921,0,0,0,-43.529731,172.578979,0,A,1,0,0,138.7,11.3,-0.498,0.298,0.902,5.2,19.4,7.6,101449,2047.7,25.2,1,4.16,43.8
7971,0,0,0,-43.529731,172.578979,0,A,1,0,0,138.7,11.3,-0.543,0.33,0.771,0.4,-4.7,18.9,101449,2047.7,25.2,1,4.16,48
8021,0,0,0,-43.529731,172.578979,0,A,1,0,0,138.7,11.3,-0.434,0.283,0.868,-3.3,19.1,0.3,101449,2047.7,25.4,1,4.17,45.2
8071,0,0,0,-43.529731,172.578979,0,A,1,0,0,138.7,11.3,-0.455,0.338,0.806,4.4,2.7,-6.2,101449,2047.7,25.4,1,4.13,77.7
8121,0,0,0,-43.529731,172.578979,0,A,1,0,0,138.7,11.3,-0.522,0.334,0.799,6.2,-0.3,7.9,101449,2047.7,25.4,1,4.13,75
8171,0,0,0,-43.529731,172.578979,0,A,1,0,0,138.7,11.3,-0.538,0.349,0.789,-2.9,-5.9,-3.5,101449,2047.7,25.3,1,4.18,47.1
8221,0,0,0,-43.529731,172.578979,0,A,1,0,0,138.7,11.3,-0.468,0.333,0.873,-0.5,4.8,2,101449,2047.7,25.6,1,4.16,47.1
8271,0,0,0,-43.529731,172.578979,0,A,1,0,0,138.7,11.3,-0.509,0.324,0.84,-0.9,4.3,2.9,101450,2047.7,25.6,1,4.16,48
8321,0,0,0,-43.529731,172.578979,0,A,1,0,0,138.7,11.3,-0.504,0.307,0.712,-0.3,-6.6,4.5,101450,2047.7,25.4,1,4.17,46.1
8371,0,0,0,-43.529731,172.578979,0,A,1,0,0,138.7,11.3,-0.489,0.323,0.878,5.3,-7.2,10.2,101450,2047.7,25.4,1,4.16,48
8421,0,0,0,-43.529731,172.578979,0,A,1,0,0,138.7,11.3,-0.483,0.36,0.771,-3.4,9.1,1.9,101450,2047.7,25.4,1,4.13,76.8
8471,0,0,0,-43.529731,172.578979,0,A,1,0,0,138.7,11.3,-0.526,0.32,0.739,3,-21.5,3,101450,2047.7,25.4,1,4.17,41
8521,0,0,0,-43.529731,172.578979,0,A,1,0,0,138.7,11.3,-0.459,0.344,0.906,7.8,-3.7,16.1,101450,2047.7,25.6,1,4.17,38.2
8571,0,0,0,-43.529731,172.578979,0,A,1,0,0,138.7,11.3,-0.459,0.294,0.781,-0.4,7.3,3.4,101450,2047.7,25.6,1,4.14,70.3
8621,0,0,0,-43.529731,172.578979,0,A,1,0,0,138.7,11.3,-0.501,0.291,0.697,3.5,-5.7,6.2,101450,2047.7,25.1,1,4.14,63.8
8671,0,0,0,-43.529731,172.578979,0,A,1,0,0,138.7,11.3,-0.483,0.373,0.849,-0.4,0.4,0.8,101450,2047.7,25.3,1,4.18,41.5
8721,0,0,0,-43.529731,172.578979,0,A,1,0,0,138.7,11.3,-0.489,0.345,0.787,-4,7.5,-8.5,101450,2047.7,25.3,1,4.17,46.1
8782,0,0,0,-43.529731,172.578979,0,A,1,0,0,138.7,11.3,-0.426,0.401,0.909,4.5,-7.3,6.3,101450,2047.7,25.7,1,4.17,45.7
8821,0,0,0,-43.529731,172.578979,0,A,1,0,0,138.7,11.3,-0.471,0.349,0.801,2.5,-6.8,8.4,101450,2047.7,25.5,1,4.17,46.6
8871,0,0,0,-43.529731,172.578979,0,A,1,0,0,138.7,11.3,-0.401,0.292,0.904,9.7,-3.1,6.4,101450,2047.7,25.5,1,4.16,47.5
8921,0,0,0,-43.529731,172.578979,0,A,1,0,0,138.7,11.3,-0.479,0.35,0.716,-9,-0.8,-12.2,101450,2047.7,25.5,1,4.13,75
8971,0,0,0,-43.529731,172.578979,0,A,1,0,0,138.7,11.3,-0.619,0.445,0.854,-0.9,0,-10.4,101450,2047.7,25.6,1,4.17,47.1
9021,0,0,0,-43.529731,172.578979,0,A,1,0,0,138.7,11.3,-0.354,0.312,0.888,3.3,32.9,-11.5,101450,2047.7,25.6,1,4.16,45.2
9071,0,0,0,-43.529731,172.578979,0,A,1,0,0,138.7,11.3,-0.579,0.341,0.911,11.4,-27,10.1,101450,2047.7,25.4,1,4.16,46.1
9121,0,0,0,-43.529731,172.578979,0,A,1,0,0,138.7,11.3,-0.513,0.295,0.793,2.1,9,-2.2,101450,2047.7,25.3,1,4.13,76.8
9171,0,0,0,-43.529731,172.578979,0,A,1,0,0,138.7,11.3,-0.599,0.368,0.762,-0.8,-25.4,24.8,101450,2047.7,25.3,1,4.14,73.6
9221,0,0,0,-43.529731,172.578979,0,A,1,0,0,138.7,11.3,-0.373,0.458,0.978,-6.8,19,-2.7,101449,2047.7,25.2,1,4.17,46.1
9271,0,0,0,-43.529731,172.578979,0,A,1,0,0,138.7,11.3,-0.537,0.524,0.856,-6.5,24.9,-14.9,101449,2047.7,25.6,1,4.13,75.4
9321,0,0,0,-43.529731,172.578979,0,A,1,0,0,138.7,11.3,-0.381,0.375,0.857,-0.7,-6.6,-14.1,101449,2047.7,25.6,1,4.17,44.7
9371,0,0,0,-43.529731,172.578979,0,A,1,0,0,138.7,11.3,-0.587,0.39,0.752,6.6,-28.3,12.4,101449,2047.7,25.4,1,4.16,47.5
9421,0,0,0,-43.529731,172.578979,0,A,1,0,0,138.7,11.3,-0.513,0.324,0.745,0.3,15.1,0.7,101449,2047.7,25.4,1,4.17,37.3
9471,0,0,0,-43.529731,172.578979,0,A,1,0,0,138.7,11.3,-0.449,0.336,0.833,7.9,-9.8,0,101449,2047.7,25.4,1,4.14,68.4
9521,0,0,0,-43.529731,172.578979,0,A,1,0,0,138.7,11.3,-0.468,0.375,0.882,8.3,-3.2,1.5,101449,2047.7,25.4,1,4.17,39.1
9571,0,0,0,-43.529731,172.578979,0,A,1,0,0,138.7,11.3,-0.524,0.338,0.659,-3.5,-9.7,6.6,101449,2047.7,25.6,1,4.16,40.5
9621,0,0,0,-43.529731,172.578979,0,A,1,0,0,138.7,11.3,-0.409,0.422,0.853,-4.6,14.6,-2,101449,2047.7,25.6,1,4.13,68.9
9671,0,0,0,-43.529731,172.578979,0,A,1,0,0,138.7,11.3,-0.519,0.362,0.775,-1.2,18,-5.1,101449,2047.7,25.2,1,4.17,40.5
9721,0,0,0,-43.529731,172.578979,0,A,1,0,0,138.7,11.3,-0.533,0.316,0.79,7.5,-11.4,5.4,101450,2047.7,25.2,1,4.13,74
9782,0,0,0,-43.529731,172.578979,0,A,1,0,0,138.7,11.3,-0.431,0.35,0.831,-4.9,23.5,-22.4,101450,2047.7,25,1,4.17,46.6
9822,0,0,0,-43.529731,172.578979,0,A,1,0,0,138.7,11.3,-0.57,0.345,0.739,9.6,-13.6,18.7,101450,2047.7,25,1,4.17,44.3
9871,0,0,0,-43.529731,172.578979,0,A,1,0,0,138.7,11.3,-0.508,0.457,0.795,-5.4,7.4,-5.5,101450,2047.7,25.5,1,4.17,47.1
9921,0,0,0,-43.529731,172.578979,0,A,1,0,0,138.7,11.3,-0.491,0.362,0.789,-2.1,-8.8,-1.2,101450,2047.7,25.5,1,4.17,43.8
9971,0,0,0,-43.529731,172.578979,0,A,1,0,0,138.7,11.3,-0.452,0.369,0.821,-0.9,16.3,-9.6,101451,2047.7,25.6,1,4.14,52.2
10021,0,0,0,-43.529731,172.578979,0,A,1,0,0,138.7,11.3,-0.637,0.311,0.74,1.7,2,5,101451,2047.7,25.5,1,4.17,43.8
10071,0,0,0,-43.529731,172.578979,0,A,1,0,0,138.7,11.3,-0.549,0.424,0.767,-7.7,7.3,-6.3,101451,2047.7,25.5,1,4.17,46.1
10121,0,0,0,-43.529731,172.578979,0,A,1,0,0,138.7,11.3,-0.51,0.361,0.861,-2.2,-3.3,-4.1,101451,2047.7,25.6,1,4.14,75
10171,0,0,0,-43.529731,172.578979,0,A,1,0,0,138.7,11.3,-0.503,0.414,0.88,4.3,14.9,-10,101451,2047.7,25.4,1,4.16,47.5
10221,0,0,0,-43.529731,172.578979,0,A,1,0,0,138.7,11.3,-0.656,0.351,0.666,1.2,-6.8,-2.7,101451,2047.7,25.4,1,4.15,70.8
10271,0,0,0,-43.529731,172.578979,0,A,1,0,0,138.7,11.3,-0.472,0.389,0.768,-1.3,-15.9,-13.8,101451,2047.7,25.4,1,4.15,47.5
10321,0,0,0,-43.529731,172.578979,0,A,1,0,0,138.7,11.3,-0.503,0.302,0.837,12.6,1.8,20.2,101451,2047.7,25.3,1,4.16,43.8
10371,0,0,0,-43.529731,172.578979,0,A,1,0,0,138.7,11.3,-0.494,0.392,0.781,-1.3,11.3,0.9,101451,2047.7,25.3,1,4.16,49.4
10421,0,0,0,-43.529731,172.578979,0,A,1,0,0,138.7,11.3,-0.602,0.385,0.79,0.7,-9.5,-4.3,101451,2047.7,25.7,1,4.17,37.7
10471,0,0,0,-43.529731,172.578979,0,A,1,0,0,138.7,11.3,-0.583,0.437,0.755,-1.8,-5.4,-2,101452,2047.7,25.5,1,4.14,70.8
10521,0,0,0,-43.529731,172.578979,0,A,1,0,0,138.7,11.3,-0.398,0.32,0.888,7,1.8,0.7,101452,2047.7,25.5,1,4.17,36.8
10571,0,0,0,-43.529731,172.578979,0,A,1,0,0,138.7,11.3,-0.632,0.43,0.722,-0.1,-11,-1.6,101452,2047.7,25.6,1,4.18,41.5
10621,0,0,0,-43.529731,172.578979,0,A,1,0,0,138.7,11.3,-0.564,0.35,0.786,-0.4,-4.8,-1.6,101452,2047.7,25.8,1,4.14,68.9
10671,0,0,0,-43.529731,172.578979,0,A,1,0,0,138.7,11.3,-0.448,0.219,0.701,2.5,-6.5,17,101452,2047.7,25.8,1,4.17,42.4
10721,0,0,0,-43.529731,172.578979,0,A,1,0,0,138.7,11.3,-0.499,0.387,0.814,-5.4,-1.1,-11.4,101451,2047.7,25.7,1,4.17,41
10782,0,0,0,-43.529731,172.578979,0,A,1,0,0,138.7,11.3,-0.583,0.387,0.779,-5.5,-2.4,-15.7,101451,2047.7,25.4,1,4.17,46.1
10822,0,0,0,-43.529731,172.578979,0,A,1,0,0,138.7,11.3,-0.474,0.246,0.705,-5.9,9.6,-19,101451,2047.7,25.4,1,4.14,73.6
10871,0,0,0,-43.529731,172.578979,0,A,1,0,0,138.7,11.3,-0.459,0.42,0.896,-6,26.3,0.5,101451,2047.7,25.2,1,4.17,46.1
10921,0,0,0,-43.529731,172.578979,0,A,1,0,0,138.7,11.3,-0.568,0.277,0.714,5.7,-21.9,2.8,101451,2047.7,25.4,1,4.17,41
10971,0,0,0,-43.529731,172.578979,0,A,1,0,0,138.7,11.3,-0.551,0.447,0.854,-5,-6.7,-4.1,101451,2047.7,25.4,1,4.14,76.8
11021,0,0,0,-43.529731,172.578979,0,A,1,0,0,138.7,11.3,-0.607,0.487,0.836,-2.2,-13.3,-5.4,101451,2047.7,25.2,1,4.18,43.8
11071,0,0,0,-43.529731,172.578979,0,A,1,0,0,138.7,11.3,-0.486,0.35,0.828,13.6,-0.5,19.9,101451,2047.7,25.4,1,4.17,47.5
11121,0,0,0,-43.529731,172.578979,0,A,1,0,0,138.7,11.3,-0.482,0.245,0.716,6.6,7.1,-2.1,101451,2047.7,25.4,1,4.2,46.1
11171,0,0,0,-43.529731,172.578979,0,A,1,0,0,138.7,11.3,-0.615,0.485,0.696,-5.5,-22.3,-2.9,101451,2047.7,25.6,1,4.17,47.5
11221,0,0,0,-43.529731,172.578979,0,A,1,0,0,138.7,11.3,-0.475,0.353,0.839,0,-4.8,19.4,101450,2047.7,25.5,1,4.17,45.2
11271,0,0,0,-43.529731,172.578979,0,A,1,0,0,138.7,11.3,-0.522,0.533,0.815,-2.6,1,-1.5,101450,2047.7,25.5,1,4.14,73.6
11321,0,0,0,-43.529731,172.578979,0,A,1,0,0,138.7,11.3,-0.411,0.432,0.918,8.1,-1.6,4.5,101450,2047.7,25.4,1,4.13,76.4
11371,0,0,0,-43.529731,172.578979,0,A,1,0,0,138.7,11.3,-0.49,0.387,0.709,4,13.5,5.7,101450,2047.7,25.4,1,4.17,48.4
11421,0,0,0,-43.529731,172.578979,0,A,1,0,0,138.7,11.3,-0.479,0.419,0.715,-5.7,-13.7,-14.8,101450,2047.7,25.4,1,4.16,45.7
11471,0,0,0,-43.529731,172.578979,0,A,1,0,0,138.7,11.3,-0.441,0.367,0.835,-5.4,-8,-6,101450,2047.7,25.5,1,4.14,76.8
11521,0,0,0,-43.529731,172.578979,0,A,1,0,0,138.7,11.3,-0.5,0.361,0.805,3.9,-4,8.2,101450,2047.7,25.5,1,4.18,36.4
11571,0,0,0,-43.529731,172.578979,0,A,1,0,0,138.7,11.3,-0.519,0.443,0.786,-0.4,-15.7,5.9,101450,2047.7,25.5,1,4.18,38.7
11621,0,0,0,-43.529731,172.578979,0,A,1,0,0,138.7,11.3,-0.516,0.175,0.639,-12.7,13.9,-1.5,101450,2047.7,25.6,1,4.17,36.4
11671,0,0,0,-43.529731,172.578979,0,A,1,0,0,138.7,11.3,-0.369,0.339,0.957,8,-15.1,-7.1,101450,2047.7,25.7,1,4.14,68.4
11722,0,0,0,-43.529731,172.578979,0,A,1,0,0,138.7,11.3,-0.452,0.374,0.849,-11.6,14.4,-21.7,101450,2047.7,25.4,1,4.17,42.9
11782,0,0,0,-43.529731,172.578979,0,A,1,0,0,138.7,11.3,-0.588,0.213,0.795,10,-8.4,2.4,101450,2047.7,25.4,1,4.17,46.1
11821,0,0,0,-43.529731,172.578979,0,A,1,0,0,138.7,11.3,-0.229,0.207,0.728,-18.7,16.6,-5.2,101450,2047.7,25.4,1,4.14,75
11871,0,0,0,-43.529731,172.578979,0,A,1,0,0,138.7,11.3,-0.369,0.421,0.895,-1.1,-10.4,-2,101450,2047.7,25.4,1,4.18,46.6
11921,0,0,0,-43.529731,172.578979,0,A,1,0,0,138.7,11.3,-0.564,0.383,0.845,5.1,-6.2,12.4,101450,2047.7,25.4,1,4.17,45.2
11971,0,0,0,-43.529731,172.578979,0,A,1,0,0,138.7,11.3,-0.479,0.346,0.877,6.5,-6.3,7.2,101450,2047.7,25.4,1,4.15,46.6
12021,0,0,0,-43.529731,172.578979,0,A,1,0,0,138.7,11.3,-0.354,0.401,0.824,-4.9,16.4,-13.3,101450,2047.7,24.9,1,4.16,44.7
12071,0,0,0,-43.529731,172.578979,0,A,1,0,0,138.7,11.3,-0.525,0.348,0.769,6,-10.5,1.6,101450,2047.7,24.9,1,4.17,47.1
12121,0,0,0,-43.529731,172.578979,0,A,1,0,0,138.7,11.3,-0.439,0.399,0.87,2.2,7.6,2,101450,2047.7,25.7,1,4.17,47.5
12171,0,0,0,-43.529731,172.578979,0,A,1,0,0,138.7,11.3,-0.54,0.396,0.668,-4.8,1.2,5.9,101450,2047.7,25.3,1,4.13,77.7
12221,0,0,0,-43.529731,172.578979,0,A,1,0,0,138.7,11.3,-0.467,0.493,0.95,2.4,-11.5,8.6,101450,2047.7,25.3,1,4.17,44.7
12271,0,0,0,-43.529731,172.578979,0,A,1,0,0,138.7,11.3,-0.465,0.379,0.894,-1.4,4.8,2.7,101450,2047.7,25.7,1,4.15,47.5
12321,0,0,0,-43.529731,172.578979,0,A,1,0,0,138.7,11.3,-0.426,0.371,0.843,0.6,-7.7,-3.8,101450,2047.7,25.2,1,4.13,71.2
12371,0,0,0,-43.529731,172.578979,0,A,1,0,0,138.7,11.3,-0.501,0.412,0.886,12.3,12.2,8.5,101450,2047.7,25.2,1,4.16,47.1
12421,0,0,0,-43.529731,172.578979,0,A,1,0,0,138.7,11.3,-0.561,0.499,0.758,1.5,6.7,6,101449,2047.7,25.5,1,4.17,40.1
12471,0,0,0,-43.529731,172.578979,0,A,1,0,0,138.7,11.3,-0.424,0.329,0.872,7.1,-14.4,15.4,101449,2047.7,25.6,1,4.16,40.5
12521,0,0,0,-43.529731,172.578979,0,A,1,0,0,138.7,11.3,-0.458,0.316,0.655,-8.4,-3.6,-7.6,101449,2047.7,25.6,1,4.14,68.4
12571,0,0,0,-43.529731,172.578979,0,A,1,0,0,138.7,11.3,-0.411,0.401,0.96,8.6,-23.5,2.4,101449,2047.7,25.4,1,4.18,41.5
12621,0,0,0,-43.529731,172.578979,0,A,1,0,0,138.7,11.3,-0.503,0.39,0.709,-0.4,18.7,0.3,101449,2047.7,25.7,1,4.17,38.2
12671,0,0,0,-43.529731,172.578979,0,A,1,0,0,138.7,11.3,-0.489,0.346,0.834,5.4,6.8,11.2,101449,2047.7,25.7,1,4.13,73.6
12727,0,0,0,-43.529731,172.578979,0,A,1,0,0,138.7,11.3,-0.48,0.34,0.717,-1.3,17.4,2.3,101449,2047.7,25.2,1,4.17,43.8
12777,0,0,0,-43.529731,172.578979,0,A,1,0,0,138.7,11.3,-0.457,0.373,0.763,-4.6,-9.9,5.9,101449,2047.7,25.4,1,4.15,47.5
12821,0,0,0,-43.529731,172.578979,0,A,1,0,0,138.7,11.3,-0.434,0.465,0.862,-10.4,8.1,-3.7,101449,2047.7,25.4,1,4.16,45.2
12871,0,0,0,-43.529731,172.578979,0,A,1,0,0,138.7,11.3,-0.492,0.354,0.766,-0.5,-2.6,11.5,101449,2047.7,25.6,1,4.13,75.9
12921,0,0,0,-43.529731,172.578979,0,A,1,0,0,138.7,11.3,-0.515,0.503,0.795,-9,0.1,-6,101449,2047.7,25.6,1,4.17,45.7
12971,0,0,0,-43.529731,172.578979,0,A,1,0,0,138.7,11.3,-0.436,0.478,0.906,1.5,8.9,-12.4,101449,2047.7,25.6,1,4.16,48.4
13021,0,0,0,-43.529731,172.578979,0,A,1,0,0,138.7,11.3,-0.548,0.434,0.757,-3.3,5.5,-0.6,101449,2047.7,25.4,1,4.14,75
13071,0,0,0,-43.529731,172.578979,0,A,1,0,0,138.7,11.3,-0.516,0.349,0.759,-16.1,-2.7,12.4,101449,2047.7,25.5,1,4.16,48.9
13121,0,0,0,-43.529731,172.578979,0,A,1,0,0,138.7,11.3,-0.453,0.427,0.798,-11.8,3.4,-12.1,101449,2047.7,25.5,1,4.16,46.1
13171,0,0,0,-43.529731,172.578979,0,A,1,0,0,138.7,11.3,-0.559,0.654,1.024,-1.2,26.4,-49.9,101448,2047.7,25.7,1,4.17,45.7
13221,0,0,0,-43.529731,172.578979,0,A,1,0,0,138.7,11.3,-0.544,0.234,0.597,-7.6,5.5,25.1,101448,2047.7,25.1,1,4.17,44.3
13271,0,0,0,-43.529731,172.578979,0,A,1,0,0,138.7,11.3,-0.471,0.474,0.986,-0.2,-15.8,9.8,101448,2047.7,25.1,1,4.17,48
13321,0,0,0,-43.529731,172.578979,0,A,1,0,0,138.7,11.3,-0.529,0.497,0.762,-19.5,-4.2,-7,101448,2047.7,25.6,1,4.16,47.1
13371,0,0,0,-43.529731,172.578979,0,A,1,0,0,138.7,11.3,-0.518,0.275,0.824,-10.1,-8.9,-3.8,101448,2047.7,25.3,1,4.13,72.6
13421,0,0,0,-43.529731,172.578979,0,A,1,0,0,138.7,11.3,-0.54,0.398,0.782,-12.7,18.5,8.8,101448,2047.7,25.3,1,4.17,46.1
13471,0,0,0,-43.529731,172.578979,0,A,1,0,0,138.7,11.3,-0.497,0.342,0.894,4.5,0.7,-3.4,101448,2047.7,25.2,1,4.14,47.5
13521,0,0,0,-43.529731,172.578979,0,A,1,0,0,138.7,11.3,-0.657,0.502,0.734,-11.7,4.9,-2.1,101448,2047.7,25.3,1,4.14,67.5
13571,0,0,0,-43.529731,172.578979,0,A,1,0,0,138.7,11.3,-0.462,0.288,0.811,-16.4,-0.3,-5,101448,2047.7,25.3,1,4.17,41.5
13621,0,0,0,-43.529731,172.578979,0,A,1,0,0,138.7,11.3,-0.492,0.261,0.776,-19.6,-4.5,5.7,101448,2047.7,25.6,1,4.17,38.7
13671,0,0,0,-43.529731,172.578979,0,A,1,0,0,138.7,11.3,-0.697,0.521,0.892,-25.6,7.7,5.5,101447,2047.7,25.9,1,4.16,46.1
13733,0,0,0,-43.529731,172.578979,0,A,1,0,0,138.7,11.3,-0.604,0.309,0.717,-3.7,-14.9,-16.1,101447,2047.7,25.9,1,4.16,44.7
13773,0,0,0,-43.529731,172.578979,0,A,1,0,0,138.7,11.3,-0.48,0.234,0.917,3,-5.2,-10.8,101447,2047.7,25.6,1,4.17,49.4
13822,0,0,0,-43.529731,172.578979,0,A,1,0,0,138.7,11.3,-0.664,0.394,0.839,-0.9,-16,-11.8,101447,2047.7,25.6,1,4.16,45.7
13872,0,0,0,-43.529731,172.578979,0,A,1,0,0,138.7,11.3,-0.5,0.232,0.975,27.9,-19.8,8.8,101447,2047.7,25.6,1,4.12,76.4
13922,0,0,0,-43.529731,172.578979,0,A,1,0,0,138.7,11.3,-0.462,0.247,0.859,45.4,-22,42.2,101446,2047.7,25.2,1,4.13,75.4
13972,0,0,0,-43.529731,172.578979,0,A,1,0,0,138.7,11.3,-0.477,0.385,0.797,34.1,-37.4,35.9,101446,2047.7,25.4,1,4.16,47.5
14022,0,0,0,-43.529731,172.578979,0,A,1,0,0,138.7,11.3,-0.415,0.395,0.863,9.9,-57,12,101446,2047.7,25.4,1,4.13,75.9
14072,0,0,0,-43.529731,172.578979,0,A,1,0,0,138.7,11.3,-0.412,0.338,0.977,64.2,-45.5,16,101446,2047.7,25.4,1,4.17,49.8
14122,0,0,0,-43.529731,172.578979,0,A,1,0,0,138.7,11.3,-0.293,0.509,0.906,68,-42.1,27.7,101446,2047.7,25.4,1,4.16,45.7
14172,0,0,0,-43.529731,172.578979,0,A,1,0,0,138.7,11.3,-0.19,0.452,0.87,113.1,-69.8,24.4,101445,2047.7,25.4,1,4.16,47.5
14222,0,0,0,-43.529731,172.578979,0,A,1,0,0,138.7,11.3,-0.109,0.549,0.68,149,-86.3,53.6,101445,2047.7,25.5,1,4.13,74.5
14272,0,0,0,-43.529731,172.578979,0,A,1,0,0,138.7,11.3,-0.047,0.687,0.649,186.3,-115.5,53.2,101445,2047.7,25.4,1,4.17,48.4
14322,0,0,0,-43.529731,172.578979,0,A,1,0,0,138.7,11.3,-0.107,0.891,0.592,120.7,-41.6,13.8,101445,2047.7,25.4,1,4.17,45.7
14372,0,0,0,-43.529731,172.578979,0,A,1,0,0,138.7,11.3,0.028,0.816,0.402,51.6,-21.7,0.4,101445,2047.7,25.7,1,4.13,77.3
14422,0,0,0,-43.529731,172.578979,0,A,1,0,0,138.7,11.3,0.102,0.731,0.228,83.3,-27.9,5.4,101446,2047.7,25.6,1,4.14,72.6
14472,0,0,0,-43.529731,172.578979,0,A,1,0,0,138.7,11.3,0.052,0.954,0.217,123.4,-33.7,6.1,101446,2047.7,25.6,1,4.16,39.6
14522,0,0,0,-43.529731,172.578979,0,A,1,0,0,138.7,11.3,0.014,0.898,0.136,119.9,17.4,9.4,101446,2047.7,25.5,1,4.17,38.2
14572,0,0,0,-43.529731,172.578979,0,A,1,0,0,138.7,11.3,0.021,1.044,0.126,111.2,45.9,0.2,101446,2047.7,25.4,1,4.17,41.5
14622,0,0,0,-43.529731,172.578979,0,A,1,0,0,138.7,11.3,0.006,1.072,0.104,61.4,-18,29.9,101447,2047.7,25.4,1,4.18,39.6
14672,0,0,0,-43.529731,172.578979,0,A,1,0,0,138.7,11.3,0.01,1.095,0.044,24.7,-56.2,24.7,101447,2047.7,25.7,1,4.15,47.1
14734,0,0,0,-43.529731,172.578979,0,A,1,0,0,138.7,11.3,0.078,1.042,-0.047,22,-80.7,22.1,101447,2047.7,25.4,1,4.17,41.9
14774,0,0,0,-43.529731,172.578979,0,A,1,0,0,138.7,11.3,-0.008,1.086,0.011,28.5,-73.9,16,101447,2047.7,25.4,1,4.15,46.1
14823,0,0,0,-43.529731,172.578979,0,A,1,0,0,138.7,11.3,0.077,0.991,-0.217,-6.5,-48.7,37.7,101447,2047.7,25.8,1,4.16,41.9
14873,0,0,0,-43.529731,172.578979,0,A,1,0,0,138.7,11.3,0.126,0.967,-0.096,15.9,-37.5,25.6,101448,2047.7,25.4,1,4.13,75
14923,0,0,0,-43.529731,172.578979,0,A,1,0,0,138.7,11.3,0.188,0.993,-0.117,48,-30.4,16.4,101448,2047.7,25.4,1,4.17,43.8
14973,0,0,0,-43.529731,172.578979,0,A,1,0,0,138.7,11.3,0.197,0.991,-0.146,69.9,-42.2,22.9,101448,2047.7,25.6,1,4.14,73.6
15023,0,0,0,-43.529731,172.578979,0,A,1,0,0,138.7,11.3,0.247,0.917,-0.217,29.1,-32.1,19,101448,2047.7,25.7,1,4.17,44.7
15073,0,0,0,-43.529731,172.578979,0,A,1,0,0,138.7,11.3,0.166,0.932,-0.19,-10.4,-17,16.1,101448,2047.7,25.7,1,4.17,47.5
15123,0,0,0,-43.529731,172.578979,0,A,1,0,0,138.7,11.3,0.233,0.961,-0.196,-10.7,-23.6,19.1,101447,2047.7,25.1,1,4.16,45.2
15173,0,0,0,-43.529731,172.578979,0,A,1,0,0,138.7,11.3,0.228,0.937,-0.152,-3.7,-20.9,23.5,101447,2047.7,25.6,1,4.17,46.6
15223,0,0,0,-43.529731,172.578979,0,A,1,0,0,138.7,11.3,0.222,0.909,-0.213,15,-17.3,22.5,101447,2047.7,25.6,1,4.14,74
15273,0,0,0,-43.529731,172.578979,0,A,1,0,0,138.7,11.3,0.373,1.079,-0.208,27.9,-8.1,-21,101447,2047.7,25.2,1,4.17,45.2
15323,0,0,0,-43.529731,172.578979,0,A,1,0,0,138.7,11.3,0.256,0.934,-0.214,3.4,-3.4,-13.8,101447,2047.7,25.7,1,4.17,44.3
15373,0,0,0,-43.529731,172.578979,0,A,1,0,0,138.7,11.3,0.2,0.865,-0.254,8.6,3.8,-6.8,101446,2047.7,25.7,1,4.14,75.9
15423,0,0,0,-43.529731,172.578979,0,A,1,0,0,138.7,11.3,0.238,0.948,-0.226,4.3,0.4,-9.3,101446,2047.7,25.3,1,4.18,44.3
15473,0,0,0,-43.529731,172.578979,0,A,1,0,0,138.7,11.3,0.254,0.966,-0.227,11.9,-9.7,8.2,101446,2047.7,25.6,1,4.15,64.7
15523,0,0,0,-43.529731,172.578979,0,A,1,0,0,138.7,11.3,0.169,0.915,-0.246,15.9,-10.6,12.4,101446,2047.7,25.6,1,4.18,37.3
15573,0,0,0,-43.529731,172.578979,0,A,1,0,0,138.7,11.3,0.229,0.882,-0.291,11.2,-4.5,11.5,101446,2047.7,25.4,1,4.14,68.4
15623,0,0,0,-43.529731,172.578979,0,A,1,0,0,138.7,11.3,0.238,0.905,-0.26,8.7,-7.6,14.3,101444,2047.7,25.7,1,4.17,35
15673,0,0,0,-43.529731,172.578979,0,A,1,0,0,138.7,11.3,0.251,0.931,-0.284,-5.1,6.5,-2.4,101444,2047.7,25.7,1,4.16,44.7
15734,0,0,0,-43.529731,172.578979,0,A,1,0,0,138.7,11.3,0.236,0.94,-0.28,3.9,0.1,0.4,101444,2047.7,25.5,1,4.16,43.8
15773,0,0,0,-43.529731,172.578979,0,A,1,0,0,138.7,11.3,0.254,0.915,-0.312,-6.2,3.6,0.2,101444,2047.7,25.6,1,4.17,41.9
15823,0,0,0,-43.529731,172.578979,0,A,1,0,0,138.7,11.3,0.241,0.919,-0.295,3.6,-2.5,-2.7,101444,2047.7,25.6,1,4.17,41
15873,0,0,0,-43.529731,172.578979,0,A,1,0,0,138.7,11.3,0.232,0.93,-0.284,-5.5,4.6,-8.8,101444,2047.7,25.7,1,4.15,47.5
15923,0,0,0,-43.529731,172.578979,0,A,1,0,0,138.7,11.3,0.249,0.938,-0.288,2.4,-3.7,-0.2,101444,2047.7,25.6,1,4.17,45.2
15973,0,0,0,-43.529731,172.578979,0,A,1,0,0,138.7,11.3,0.223,0.944,-0.272,-1.4,3.4,-2.7,101444,2047.7,25.4,1,4.15,45.7
16023,0,0,0,-43.529731,172.578979,0,A,1,0,0,138.7,11.3,0.23,0.919,-0.308,4.9,-3.3,1.1,101444,2047.7,25.4,1,4.13,70.8
16073,0,0,0,-43.529731,172.578979,0,A,1,0,0,138.7,11.3,0.234,0.917,-0.296,0.9,0.2,-0.1,101444,2047.7,25.2,1,4.14,75.4
16123,0,0,0,-43.529731,172.578979,0,A,1,0,0,138.7,11.3,0.235,0.905,-0.305,0.2,-0.2,-0.9,101444,2047.7,25.5,1,4.18,43.8
16173,0,0,0,-43.529731,172.578979,0,A,1,0,0,138.7,11.3,0.227,0.915,-0.303,-2,-1.1,1.2,101444,2047.7,25.5,1,4.16,47.5
16223,0,0,0,-43.529731,172.578979,0,A,1,0,0,138.7,11.3,0.227,0.93,-0.281,-5,-0.5,-0.9,101444,2047.7,25.5,1,4.17,41.9
16273,0,0,0,-43.529731,172.578979,0,A,1,0,0,138.7,11.3,0.226,0.938,-0.288,-3.5,0.4,-3.2,101444,2047.7,25.1,1,4.17,46.6
16323,0,0,0,-43.529731,172.578979,0,A,1,0,0,138.7,11.3,0.228,0.938,-0.29,-3.2,-0.9,0.6,101444,2047.7,25.1,1,4.17,44.7
16373,0,0,0,-43.529731,172.578979,0,A,1,0,0,138.7,11.3,0.231,0.938,-0.286,0.1,-2.3,0.3,101445,2047.7,25.6,1,4.17,47.1
16423,0,0,0,-43.529731,172.578979,0,A,1,0,0,138.7,11.3,0.22,0.934,-0.281,-0.9,-0.2,-1.9,101445,2047.7,25.3,1,4.14,66.1
16473,0,0,0,-43.529731,172.578979,0,A,1,0,0,138.7,11.3,0.217,0.924,-0.281,-3.4,0.5,-1.1,101445,2047.7,25.3,1,4.17,38.7
16523,0,0,0,-43.529731,172.578979,0,A,1,0,0,138.7,11.3,0.22,0.932,-0.282,-3.5,3.5,-5,101445,2047.7,25.7,1,4.18,39.6
16573,0,0,0,-43.529731,172.578979,0,A,1,0,0,138.7,11.3,0.223,0.94,-0.283,-2.3,0.4,-0.5,101445,2047.7,25.1,1,4.13,68.9
16623,0,0,0,-43.529731,172.578979,0,A,1,0,0,138.7,11.3,0.214,0.941,-0.282,-0.1,-1.8,2.6,101445,2047.7,25.1,1,4.17,36.8
16673,0,0,0,-43.529731,172.578979,0,A,1,0,0,138.7,11.3,0.224,0.935,-0.288,0,-0.8,0.7,101445,2047.7,25.7,1,4.16,44.3
16734,0,0,0,-43.529731,172.578979,0,A,1,0,0,138.7,11.3,0.224,0.931,-0.281,-2.5,0.1,0,101445,2047.7,25.7,1,4.17,42.9
16773,0,0,0,-43.529731,172.578979,0,A,1,0,0,138.7,11.3,0.21,0.922,-0.286,-0.7,-1.7,-0.4,101445,2047.7,25.7,1,4.14,77.7
16823,0,0,0,-43.529731,172.578979,0,A,1,0,0,138.7,11.3,0.22,0.932,-0.29,-2.7,1.2,-0.1,101445,2047.7,25.5,1,4.17,46.6
16873,0,0,0,-43.529731,172.578979,0,A,1,0,0,138.7,11.3,0.225,0.951,-0.265,-1,-0.4,2.1,101445,2047.7,25.7,1,4.17,42.9
16923,0,0,0,-43.529731,172.578979,0,A,1,0,0,138.7,11.3,0.212,0.928,-0.279,0.1,0.9,-0.7,101445,2047.7,25.7,1,4.13,72.2
16973,0,0,0,-43.529731,172.578979,0,A,1,0,0,138.7,11.3,0.227,0.927,-0.294,-1.7,1.3,-2.4,101445,2047.7,25.6,1,4.17,46.6
17023,0,0,0,-43.529731,172.578979,0,A,1,0,0,138.7,11.3,0.231,0.926,-0.273,-1.9,-1.2,3.9,101445,2047.7,25.9,1,4.15,44.7
17073,0,0,0,-43.529731,172.578979,0,A,1,0,0,138.7,11.3,0.218,0.92,-0.286,-4.1,1,5.2,101445,2047.7,25.9,1,4.14,70.8
17123,0,0,0,-43.529731,172.578979,0,A,1,0,0,138.7,11.3,0.213,0.925,-0.287,-7.2,3.4,0.9,101446,2047.7,25.2,1,4.17,44.3
17173,0,0,0,-43.529731,172.578979,0,A,1,0,0,138.7,11.3,0.229,0.915,-0.261,-10.7,4.6,-2.7,101446,2047.7,25.7,1,4.17,45.2
17223,0,0,0,-43.529731,172.578979,0,A,1,0,0,138.7,11.3,0.239,0.892,-0.241,-18.2,7.6,-11,101446,2047.7,25.7,1,4.16,41.9
17273,0,0,0,-43.529731,172.578979,0,A,1,0,0,138.7,11.3,0.244,0.898,-0.249,-29.8,12,-27.6,101446,2047.7,25.5,1,4.12,75
17323,0,0,0,-43.529731,172.578979,0,A,1,0,0,138.7,11.3,0.265,0.97,-0.205,-11.8,-12.7,-11.6,101446,2047.7,25.6,1,4.16,45.7
17373,0,0,0,-43.529731,172.578979,0,A,1,0,0,138.7,11.3,0.188,1.027,-0.183,-17.3,-3.8,-22,101446,2047.7,25.6,1,4.17,48.9
17423,0,0,0,-43.529731,172.578979,0,A,1,0,0,138.7,11.3,0.172,1.027,-0.172,-0.9,-19.9,-2.9,101446,2047.7,25.6,1,4.14,68
17473,0,0,0,-43.529731,172.578979,0,A,1,0,0,138.7,11.3,0.174,0.993,-0.192,-0.1,-17.7,3.2,101446,2047.7,25.5,1,4.16,43.3
17523,0,0,0,-43.529731,172.578979,0,A,1,0,0,138.7,11.3,0.184,0.938,-0.229,0.2,-19.8,7.9,101446,2047.7,25.5,1,4.17,40.5
17573,0,0,0,-43.529731,172.578979,0,A,1,0,0,138.7,11.3,0.176,0.989,-0.19,4.5,-25,14.8,101448,2047.7,25.6,1,4.18,40.5
17623,0,0,0,-43.529731,172.578979,0,A,1,0,0,138.7,11.3,0.157,0.951,-0.193,-7.1,-15.9,1.2,101448,2047.7,25.2,1,4.14,68.4
17673,0,0,0,-43.529731,172.578979,0,A,1,0,0,138.7,11.3,0.168,0.963,-0.293,-8.5,-18.2,0.3,101448,2047.7,25.2,1,4.17,47.1
17734,0,0,0,-43.529731,172.578979,0,A,1,0,0,138.7,11.3,0.21,0.915,-0.258,-8.8,-21.2,-9,101448,2047.7,25.5,1,4.15,44.3
17774,0,0,0,-43.529731,172.578979,0,A,1,0,0,138.7,11.3,0.136,0.916,-0.228,4.2,-31.6,8.8,101448,2047.7,25.8,1,4.13,78.2
17823,0,0,0,-43.529731,172.578979,0,A,1,0,0,138.7,11.3,0.099,0.996,-0.169,-1.7,-17.7,8.2,101448,2047.7,25.8,1,4.18,46.1
17873,0,0,0,-43.529731,172.578979,0,A,1,0,0,138.7,11.3,0.086,0.959,-0.206,2.5,-21,13.7,101448,2047.7,25.5,1,4.16,47.5
17923,0,0,0,-43.529731,172.578979,0,A,1,0,0,138.7,11.3,0.097,0.935,-0.256,4.6,-27.2,26.6,101448,2047.7,25.6,1,4.17,45.7
17973,0,0,0,-43.529731,172.578979,0,A,1,0,0,138.7,11.3,0.134,0.951,-0.246,-3.9,-27.4,27,101448,2047.7,25.6,1,4.15,47.5
18023,0,0,0,-43.529731,172.578979,0,A,1,0,0,138.7,11.3,0.157,0.899,-0.277,-14.4,-35.9,51.3,101448,2047.7,25.3,1,4.17,47.5
18073,0,0,0,-43.529731,172.578979,0,A,1,0,0,138.7,11.3,0.223,1.013,-0.186,-0.7,-26.8,18.4,101448,2047.7,25.8,1,4.16,48.4
18123,0,0,0,-43.529731,172.578979,0,A,1,0,0,138.7,11.3,0.264,0.911,-0.29,-1.5,-42,41.6,101448,2047.7,25.8,1,4.14,68.4
18173,0,0,0,-43.529731,172.578979,0,A,1,0,0,138.7,11.3,0.271,0.971,-0.179,15.7,-36.2,47.1,101448,2047.7,25.2,1,4.17,48
18223,0,0,0,-43.529731,172.578979,0,A,1,0,0,138.7,11.3,0.28,0.883,-0.309,29.5,-13.2,15.4,101448,2047.7,25.6,1,4.17,44.7
18273,0,0,0,-43.529731,172.578979,0,A,1,0,0,138.7,11.3,0.306,0.934,-0.284,45.1,-33.4,52.6,101448,2047.7,25.6,1,4.13,77.3
18323,0,0,0,-43.529731,172.578979,0,A,1,0,0,138.7,11.3,0.32,0.875,-0.323,34.9,-11.8,32,101446,2047.7,25.2,1,4.18,44.3
18373,0,0,0,-43.529731,172.578979,0,A,1,0,0,138.7,11.3,0.338,0.877,-0.328,17.9,4.8,6,101446,2047.7,25.5,1,4.17,48
18423,0,0,0,-43.529731,172.578979,0,A,1,0,0,138.7,11.3,0.301,0.849,-0.336,4.2,22.4,5,101446,2047.7,25.5,1,4.17,45.7
18473,0,0,0,-43.529731,172.578979,0,A,1,0,0,138.7,11.3,0.311,0.834,-0.349,9.6,18.5,13.2,101446,2047.7,25.6,1,4.17,40.1
18523,0,0,0,-43.529731,172.578979,0,A,1,0,0,138.7,11.3,0.381,0.827,-0.375,-4.8,28.1,-4,101446,2047.7,25.7,1,4.17,40.1
18573,0,0,0,-43.529731,172.578979,0,A,1,0,0,138.7,11.3,0.396,0.788,-0.397,-24.6,43,-14,101443,2047.7,25.7,1,4.18,41
18623,0,0,0,-43.529731,172.578979,0,A,1,0,0,138.7,11.3,0.415,0.959,-0.294,0.4,21.1,-12,101443,2047.7,25.7,1,4.14,67.5
18673,0,0,0,-43.529731,172.578979,0,A,1,0,0,138.7,11.3,0.331,0.943,-0.245,-2.3,37.9,-17.9,101443,2047.7,25.4,1,4.13,71.7
18734,0,0,0,-43.529731,172.578979,0,A,1,0,0,138.7,11.3,0.353,0.936,-0.251,-10.1,56.1,-22,101443,2047.7,25.1,1,4.17,45.2
18774,0,0,0,-43.529731,172.578979,0,A,1,0,0,138.7,11.3,0.377,0.893,-0.262,-62.3,95.9,-35.7,101443,2047.7,25.1,1,4.12,76.8
18823,0,0,0,-43.529731,172.578979,0,A,1,0,0,138.7,11.3,0.385,0.893,-0.203,-78.8,129.4,-93,101446,2047.7,25.2,1,4.17,46.6
18873,0,0,0,-43.529731,172.578979,0,A,1,0,0,138.7,11.3,0.294,1.134,0.095,-90.2,119.3,-57.3,101446,2047.7,25.4,1,4.16,45.2
18923,0,0,0,-43.529731,172.578979,0,A,1,0,0,138.7,11.3,0.256,0.897,-0.046,-64.8,105.5,-57.8,101446,2047.7,25.4,1,4.17,43.3
18973,0,0,0,-43.529731,172.578979,0,A,1,0,0,138.7,11.3,0.345,1.097,0.181,-36.1,68.6,-39.3,101446,2047.7,25.4,1,4.12,77.7
19023,0,0,0,-43.529731,172.578979,0,A,1,0,0,138.7,11.3,0.226,0.969,0.098,-22,59.5,-24.5,101446,2047.7,25.7,1,4.17,47.1
19073,0,0,0,-43.529731,172.578979,0,A,1,0,0,138.7,11.3,0.172,0.994,0.217,2.4,22.2,2.6,101447,2047.7,25.7,1,4.16,46.6
19123,0,0,0,-43.529731,172.578979,0,A,1,0,0,138.7,11.3,0.14,0.944,0.199,-28.1,70.3,-26.6,101447,2047.7,25.7,1,4.14,74
19173,0,0,0,-43.529731,172.578979,0,A,1,0,0,138.7,11.3,0.152,1.02,0.278,-28.8,66.4,-46.1,101447,2047.7,25.4,1,4.16,47.1
19223,0,0,0,-43.529731,172.578979,0,A,1,0,0,138.7,11.3,0.064,0.888,0.204,-46.7,70.8,-24.9,101447,2047.7,25.4,1,4.14,70.3
19273,0,0,0,-43.529731,172.578979,0,A,1,0,0,138.7,11.3,0.021,0.976,0.317,-26.6,61,-28.8,101447,2047.7,25.3,1,4.14,77.3
19323,0,0,0,-43.529731,172.578979,0,A,1,0,0,138.7,11.3,-0.012,0.931,0.291,-29.6,64.5,-12.6,101448,2047.7,25.7,1,4.17,46.1
19373,0,0,0,-43.529731,172.578979,0,A,1,0,0,138.7,11.3,-0.039,1.001,0.324,-17.4,59.3,-9.3,101448,2047.7,25.7,1,4.17,46.6
19423,0,0,0,-43.529731,172.578979,0,A,1,0,0,138.7,11.3,-0.031,0.917,0.237,-10.9,15.6,9.7,101448,2047.7,25.9,1,4.17,36.8
19473,0,0,0,-43.529731,172.578979,0,A,1,0,0,138.7,11.3,-0.011,1.019,0.346,-4.7,6,0.1,101448,2047.7,25.3,1,4.14,69.8
19523,0,0,0,-43.529731,172.578979,0,A,1,0,0,138.7,11.3,-0.018,0.946,0.324,-12.2,10,-18.2,101448,2047.7,25.3,1,4.18,38.2
19573,0,0,0,-43.529731,172.578979,0,A,1,0,0,138.7,11.3,-0.04,0.849,0.294,-16.8,-18.9,15.5,101449,2047.7,25.6,1,4.16,40.5
19623,0,0,0,-43.529731,172.578979,0,A,1,0,0,138.7,11.3,-0.074,0.948,0.407,-23.2,-6.7,9.5,101449,2047.7,25.4,1,4.14,68
19674,0,0,0,-43.529731,172.578979,0,A,1,0,0,138.7,11.3,-0.08,0.859,0.397,-38.2,19.9,22.6,101449,2047.7,25.4,1,4.17,45.7
19734,0,0,0,-43.529731,172.578979,0,A,1,0,0,138.7,11.3,-0.064,0.894,0.409,-34.1,11.2,44.6,101449,2047.7,25.6,1,4.16,46.6
19774,0,0,0,-43.529731,172.578979,0,A,1,0,0,138.7,11.3,-0.034,0.926,0.49,-34.3,32.2,24.1,101449,2047.7,25.4,1,4.12,75
19823,0,0,0,-43.529731,172.578979,0,A,1,0,0,138.7,11.3,0.004,0.928,0.458,-30.9,38.6,9.2,101450,2047.7,25.4,1,4.18,44.7
19873,0,0,0,-43.529731,172.578979,0,A,1,0,0,138.7,11.3,-0.016,0.893,0.547,-30.4,53.8,12.6,101450,2047.7,25.5,1,4.16,46.6
19923,0,0,0,-43.529731,172.578979,0,A,1,0,0,138.7,11.3,-0.016,0.865,0.521,-41.2,74,-13.1,101450,2047.7,25.7,1,4.17,46.1
19973,0,0,0,-43.529731,172.578979,0,A,1,0,0,138.7,11.3,-0.02,0.811,0.587,-36.2,79.9,-9.9,101450,2047.7,25.7,1,4.14,81
20023,0,0,0,-43.529731,172.578979,0,A,1,0,0,138.7,11.3,-0.104,0.877,0.568,-41,62.6,-9.7,101448,2047.7,25.2,1,4.17,45.7
20073,0,0,0,-43.529731,172.578979,0,A,1,0,0,138.7,11.3,-0.152,0.788,0.518,-32.4,28.7,0.9,101448,2047.7,25.7,1,4.14,50.3
20123,0,0,0,-43.529731,172.578979,0,A,1,0,0,138.7,11.3,-0.132,0.78,0.636,-22.9,30.7,-9.1,101448,2047.7,25.7,1,4.14,73.6
20173,0,0,0,-43.529731,172.578979,0,A,1,0,0,138.7,11.3,-0.229,0.764,0.671,9,-0.3,12.5,101448,2047.7,25.2,1,4.15,49.8
20223,0,0,0,-43.529731,172.578979,0,A,1,0,0,138.7,11.3,-0.195,0.869,0.762,-25.4,42.1,6.3,101448,2047.7,25.6,1,4.17,47.1
20273,0,0,0,-43.529731,172.578979,0,A,1,0,0,138.7,11.3,-0.197,0.806,0.606,10.9,58,-6.5,101448,2047.7,25.6,1,4.12,75
20323,0,0,0,-43.529731,172.578979,0,A,1,0,0,138.7,11.3,-0.201,0.808,0.616,-23.6,58.4,13.7,101448,2047.7,25.1,1,4.14,49.4
20373,0,0,0,-43.529731,172.578979,0,A,1,0,0,138.7,11.3,-0.204,0.726,0.439,-11.9,20.2,19.9,101448,2047.7,25.4,1,4.17,48
20423,0,0,0,-43.529731,172.578979,0,A,1,0,0,138.7,11.3,-0.238,0.88,0.756,0.1,2,14,101448,2047.7,25.4,1,4.17,47.5
20473,0,0,0,-43.529731,172.578979,0,A,1,0,0,138.7,11.3,-0.278,0.814,0.707,-26.9,48.9,0.4,101448,2047.7,25.7,1,4.14,72.2
20523,0,0,0,-43.529731,172.578979,0,A,1,0,0,138.7,11.3,-0.328,0.667,0.43,-52,5.5,6.6,101448,2047.7,25.7,1,4.17,39.1
20573,0,0,0,-43.529731,172.578979,0,A,1,0,0,138.7,11.3,-0.197,0.812,0.642,-40.8,-12.9,-18.4,101448,2047.7,25.7,1,4.16,41.9
20623,0,0,0,-43.529731,172.578979,0,A,1,0,0,138.7,11.3,-0.292,0.698,0.667,-29.8,-42.7,-3.7,101448,2047.7,25.7,1,4.17,45.7
20674,0,0,0,-43.529731,172.578979,0,A,1,0,0,138.7,11.3,-0.142,0.719,0.742,-52.8,-17.3,-20.4,101448,2047.7,25.2,1,4.16,49.8
20734,0,0,0,-43.529731,172.578979,0,A,1,0,0,138.7,11.3,-0.266,0.628,0.636,-81.1,-66.3,-7.7,101448,2047.7,25.7,1,4.16,46.6
20774,0,0,0,-43.529731,172.578979,0,A,1,0,0,138.7,11.3,-0.165,0.612,0.777,-81.4,-92.9,-24,101447,2047.7,25.7,1,4.16,48
20823,0,0,0,-43.529731,172.578979,0,A,1,0,0,138.7,11.3,-0.126,0.512,0.951,-67.4,-76.7,-32.9,101447,2047.7,25.3,1,4.13,75.4
20873,0,0,0,-43.529731,172.578979,0,A,1,0,0,138.7,11.3,-0.108,0.467,0.979,-73.9,-30.3,-4.3,101447,2047.7,25.3,1,4.17,48.9
20923,0,0,0,-43.529731,172.578979,0,A,1,0,0,138.7,11.3,-0.11,0.395,0.795,-54.5,-9.1,-12.6,101447,2047.7,25.5,1,4.17,47.1
20973,0,0,0,-43.529731,172.578979,0,A,1,0,0,138.7,11.3,-0.041,0.402,0.931,-34.1,-28.7,-13.8,101447,2047.7,25.4,1,4.13,77.7
21023,0,0,0,-43.529731,172.578979,0,A,1,0,0,138.7,11.3,-0.041,0.353,1.015,-8.9,-24.5,-11.5,101449,2047.7,25.4,1,4.17,45.2
21073,0,0,0,-43.529731,172.578979,0,A,1,0,0,138.7,11.3,-0.085,0.308,1.03,19.1,-19.4,-21,101449,2047.7,25.5,1,4.17,48
21123,0,0,0,-43.529731,172.578979,0,A,1,0,0,138.7,11.3,-0.051,0.371,1.062,21.8,-10.1,-13,101449,2047.7,25.7,1,4.16,47.1
21173,0,0,0,-43.529731,172.578979,0,A,1,0,0,138.7,11.3,-0.058,0.411,0.941,26.3,0.6,-18,101449,2047.7,25.7,1,4.17,47.5
21223,0,0,0,-43.529731,172.578979,0,A,1,0,0,138.7,11.3,-0.032,0.411,0.885,17.2,-17.5,-13.1,101449,2047.7,25.5,1,4.17,45.2
21273,0,0,0,-43.529731,172.578979,0,A,1,0,0,138.7,11.3,-0.035,0.419,0.877,1,-15.8,-9.9,101448,2047.7,25.9,1,4.16,47.1
21323,0,0,0,-43.529731,172.578979,0,A,1,0,0,138.7,11.3,0.044,0.35,1.047,12.3,-5.1,-14.6,101448,2047.7,25.9,1,4.15,70.8
21373,0,0,0,-43.529731,172.578979,0,A,1,0,0,138.7,11.3,-0.032,0.448,0.966,14.8,-4.7,-23.8,101448,2047.7,25.2,1,4.17,48.4
21423,0,0,0,-43.529731,172.578979,0,A,1,0,0,138.7,11.3,-0.111,0.415,1.013,19,-33.7,-15.2,101448,2047.7,25.8,1,4.16,42.4
21473,0,0,0,-43.529731,172.578979,0,A,1,0,0,138.7,11.3,0.022,0.489,1.035,23.4,-17.3,-21.9,101448,2047.7,25.8,1,4.14,72.2
21523,0,0,0,-43.529731,172.578979,0,A,1,0,0,138.7,11.3,-0.016,0.486,0.874,36.8,-7.4,-17.8,101447,2047.7,25.2,1,4.17,37.3
21573,0,0,0,-43.529731,172.578979,0,A,1,0,0,138.7,11.3,0,0.515,0.828,33.8,-2.5,-12.3,101447,2047.7,25.7,1,4.17,40.1
21623,0,0,0,-43.529731,172.578979,0,A,1,0,0,138.7,11.3,-0.042,0.529,0.722,29.7,-15.5,-9.9,101447,2047.7,25.7,1,4.16,42.9
21685,0,0,0,-43.529731,172.578979,0,A,1,0,0,138.7,11.3,-0.001,0.557,0.714,11.5,-30.3,-10.5,101447,2047.7,25.8,1,4.17,44.7
21725,0,0,0,-43.529731,172.578979,0,A,1,0,0,138.7,11.3,0.016,0.559,0.758,-2.3,-22.7,-8.7,101447,2047.7,25.5,1,4.17,43.3
21774,0,0,0,-43.529731,172.578979,0,A,1,0,0,138.7,11.3,-0.013,0.56,0.768,-0.5,-3.7,-6,101447,2047.7,25.7,1,4.16,46.6
21824,0,0,0,-43.529731,172.578979,0,A,1,0,0,138.7,11.3,0.005,0.549,0.832,-0.1,3.4,-4.2,101447,2047.7,25.7,1,4.17,75.9
21874,0,0,0,-43.529731,172.578979,0,A,1,0,0,138.7,11.3,-0.011,0.553,0.821,-0.4,4.1,-5.4,101447,2047.7,25.5,1,4.16,46.6
21924,0,0,0,-43.529731,172.578979,0,A,1,0,0,138.7,11.3,-0.022,0.579,0.811,1.2,2.5,-1.7,101447,2047.7,25.7,1,4.17,44.7
21974,0,0,0,-43.529731,172.578979,0,A,1,0,0,138.7,11.3,0.008,0.577,0.81,-1.8,4.4,0.2,101447,2047.7,25.7,1,4.12,79.1
22024,0,0,0,-43.529731,172.578979,0,A,1,0,0,138.7,11.3,-0.022,0.564,0.834,0.2,-0.8,-0.2,101446,2047.7,25.6,1,4.16,44.7
22074,0,0,0,-43.529731,172.578979,0,A,1,0,0,138.7,11.3,-0.005,0.565,0.854,-2.3,-0.5,0.5,101446,2047.7,25.4,1,4.17,48.4
22124,0,0,0,-43.529731,172.578979,0,A,1,0,0,138.7,11.3,-0.023,0.567,0.846,0.9,-0.1,-0.2,101446,2047.7,25.4,1,4.17,43.8
22174,0,0,0,-43.529731,172.578979,0,A,1,0,0,138.7,11.3,-0.003,0.561,0.843,-0.6,-0.2,-1.4,101446,2047.7,25.6,1,4.13,48
22224,0,0,0,-43.529731,172.578979,0,A,1,0,0,138.7,11.3,-0.002,0.566,0.833,0.1,-0.5,-0.6,101446,2047.7,25.6,1,4.16,44.3
22274,0,0,0,-43.529731,172.578979,0,A,1,0,0,138.7,11.3,0.002,0.579,0.829,-2.8,-0.6,0.2,101446,2047.7,25.6,1,4.15,48
22324,0,0,0,-43.529731,172.578979,0,A,1,0,0,138.7,11.3,-0.016,0.564,0.832,-3.5,-1.2,1,101446,2047.7,25.8,1,4.13,76.4
22374,0,0,0,-43.529731,172.578979,0,A,1,0,0,138.7,11.3,0.009,0.556,0.83,-2.9,0.7,2.2,101446,2047.7,25.5,1,4.13,73.6
22424,0,0,0,-43.529731,172.578979,0,A,1,0,0,138.7,11.3,-0.006,0.551,0.846,-6.1,-1.3,-0.6,101446,2047.7,25.5,1,4.18,36.4
22474,0,0,0,-43.529731,172.578979,0,A,1,0,0,138.7,11.3,-0.013,0.562,0.867,-3.3,0.2,-0.9,101446,2047.7,25.7,1,4.17,39.6
22524,0,0,0,-43.529731,172.578979,0,A,1,0,0,138.7,11.3,0.006,0.555,0.855,-2.3,-0.3,-1.2,101445,2047.7,25.2,1,4.17,35.9
22574,0,0,0,-43.529731,172.578979,0,A,1,0,0,138.7,11.3,-0.008,0.55,0.836,-1.3,-2.5,-1.2,101445,2047.7,25.2,1,4.17,40.1
22624,0,0,0,-43.529731,172.578979,0,A,1,0,0,138.7,11.3,0.011,0.556,0.831,-2.2,-0.8,-2.2,101445,2047.7,25.6,1,4.18,43.3
22685,0,0,0,-43.529731,172.578979,0,A,1,0,0,138.7,11.3,0.016,0.549,0.832,-4.5,-1.5,-4.6,101445,2047.7,25.4,1,4.15,48.9
22725,0,0,0,-43.529731,172.578979,0,A,1,0,0,138.7,11.3,0.024,0.527,0.813,-3.6,0.9,-5.5,101445,2047.7,25.4,1,4.15,43.3
22774,0,0,0,-43.529731,172.578979,0,A,1,0,0,138.7,11.3,0.026,0.511,0.727,2.5,-2,-5.1,101445,2047.7,25.6,1,4.17,48
22824,0,0,0,-43.529731,172.578979,0,A,1,0,0,138.7,11.3,-0.032,0.441,0.63,22.4,6.6,7.9,101445,2047.7,25.4,1,4.17,44.7
22874,0,0,0,-43.529731,172.578979,0,A,1,0,0,138.7,11.3,-0.017,0.349,0.608,-3.9,57.4,8.4,101445,2047.7,25.4,1,4.15,48
22924,0,0,0,-43.529731,172.578979,0,A,1,0,0,138.7,11.3,-0.02,0.315,0.585,-28.7,93.4,17,101445,2047.7,25.5,1,4.13,75.4
22974,0,0,0,-43.529731,172.578979,0,A,1,0,0,138.7,11.3,-0.083,0.435,0.729,-67.3,141,-15.5,101444,2047.7,25.4,1,4.16,47.1
23024,0,0,0,-43.529731,172.578979,0,A,1,0,0,138.7,11.3,-0.288,0.447,0.679,-28,110.1,-25.9,101444,2047.7,25.4,1,4.13,75
23074,0,0,0,-43.529731,172.578979,0,A,1,0,0,138.7,11.3,-0.443,0.591,0.93,-23.8,78.8,-47.3,101444,2047.7,25.5,1,4.16,47.1
23124,0,0,0,-43.529731,172.578979,0,A,1,0,0,138.7,11.3,-0.585,0.649,0.985,-27.4,76.5,-45.7,101444,2047.7,25.6,1,4.17,46.1
23174,0,0,0,-43.529731,172.578979,0,A,1,0,0,138.7,11.3,-0.707,0.662,1.01,-27.3,84,-33.8,101444,2047.7,25.6,1,4.12,75.9
23224,0,0,0,-43.529731,172.578979,0,A,1,0,0,138.7,11.3,-0.736,0.72,0.826,-3,63.3,-2.9,101446,2047.7,25.4,1,4.16,42.4
23274,0,0,0,-43.529731,172.578979,0,A,1,0,0,138.7,11.3,-0.68,0.696,0.89,49.2,66,-30.2,101446,2047.7,25.4,1,4.17,45.2
23324,0,0,0,-43.529731,172.578979,0,A,1,0,0,138.7,11.3,-0.781,0.45,0.667,30.7,86.8,-2.3,101446,2047.7,25.4,1,4.16,44.7
23374,0,0,0,-43.529731,172.578979,0,A,1,0,0,138.7,11.3,-0.729,0.513,0.602,22.2,90.1,50.9,101446,2047.7,25.4,1,4.17,39.6
23424,0,0,0,-43.529731,172.578979,0,A,1,0,0,138.7,11.3,-0.738,0.413,0.506,17.4,89.9,14.3,101446,2047.7,25.6,1,4.14,62.9
23474,0,0,0,-43.529731,172.578979,0,A,1,0,0,138.7,11.3,-0.728,0.559,0.64,35.7,45.6,2.8,101445,2047.7,25.6,1,4.17,41.9
23524,0,0,0,-43.529731,172.578979,0,A,1,0,0,138.7,11.3,-0.696,0.398,0.437,48.2,-26,14.8,101445,2047.7,25.9,1,4.14,68
23574,0,0,0,-43.529731,172.578979,0,A,1,0,0,138.7,11.3,-0.851,0.5,0.631,48.7,-55.1,-9,101445,2047.7,25.7,1,4.17,40.1
23624,0,0,0,-43.529731,172.578979,0,A,1,0,0,138.7,11.3,-0.829,0.483,0.549,-113.2,-0.5,-73.6,101445,2047.7,25.7,1,4.16,44.3
23685,0,0,0,-43.529731,172.578979,0,A,1,0,0,138.7,11.3,-0.496,0.116,0.559,44.8,-34.5,26.1,101445,2047.7,25.7,1,4.16,47.1
23725,0,0,0,-43.529731,172.578979,0,A,1,0,0,138.7,11.3,-0.72,0.497,0.625,39.4,-36.3,6.4,101444,2047.7,25.7,1,4.16,42.4
23774,0,0,0,-43.529731,172.578979,0,A,1,0,0,138.7,11.3,-0.808,0.355,0.427,43.5,-32.9,-33.4,101444,2047.7,25.7,1,4.16,46.1
23824,0,0,0,-43.529731,172.578979,0,A,1,0,0,138.7,11.3,-0.688,0.458,0.686,37.6,-45,-51.2,101444,2047.7,25.7,1,4.17,42.9
23874,0,0,0,-43.529731,172.578979,0,A,1,0,0,138.7,11.3,-1.027,0.745,0.715,-20,-80.5,-129,101444,2047.7,25.1,1,4.12,76.4
23924,0,0,0,-43.529731,172.578979,0,A,1,0,0,138.7,11.3,-0.487,0.454,0.612,-19.9,-82,-70.5,101444,2047.7,25.1,1,4.17,44.3
23974,0,0,0,-43.529731,172.578979,0,A,1,0,0,138.7,11.3,-0.612,-0.011,0.572,-54,-78,-60.5,101443,2047.7,25.4,1,4.14,75.9
24024,0,0,0,-43.529731,172.578979,0,A,1,0,0,138.7,11.3,-0.524,0.091,0.833,-20.4,-61.3,-70.7,101443,2047.7,25.6,1,4.13,73.6
24074,0,0,0,-43.529731,172.578979,0,A,1,0,0,138.7,11.3,-0.68,-0.088,0.683,25.2,-63.5,-49.5,101443,2047.7,25.6,1,4.17,45.2
24124,0,0,0,-43.529731,172.578979,0,A,1,0,0,138.7,11.3,-0.487,0.205,0.835,26.5,-46,-38.4,101443,2047.7,25.5,1,4.17,44.3
24174,0,0,0,-43.529731,172.578979,0,A,1,0,0,138.7,11.3,-0.556,0.074,0.757,29.3,-42.1,-43.9,101443,2047.7,25.5,1,4.13,77.7
24224,0,0,0,-43.529731,172.578979,0,A,1,0,0,138.7,11.3,-0.49,0.11,0.839,44.5,-29.1,-43,101443,2047.7,25.5,1,4.18,45.7
24274,0,0,0,-43.529731,172.578979,0,A,1,0,0,138.7,11.3,-0.497,0.118,0.809,33.8,-12.1,-10.2,101443,2047.7,25.6,1,4.16,47.5
24324,0,0,0,-43.529731,172.578979,0,A,1,0,0,138.7,11.3,-0.546,0.179,0.8,19.8,6,-36.8,101443,2047.7,25.7,1,4.16,46.6
24374,0,0,0,-43.529731,172.578979,0,A,1,0,0,138.7,11.3,-0.42,0.146,0.832,38.5,49.3,-17.1,101443,2047.7,25.7,1,4.18,40.1
24424,0,0,0,-43.529731,172.578979,0,A,1,0,0,138.7,11.3,-0.589,0.221,0.785,24.9,68.1,12,101443,2047.7,25.6,1,4.16,40.5
24474,0,0,0,-43.529731,172.578979,0,A,1,0,0,138.7,11.3,-0.654,0.345,0.762,31,75.9,33,101444,2047.7,25.9,1,4.15,67.1
24524,0,0,0,-43.529731,172.578979,0,A,1,0,0,138.7,11.3,-0.583,0.304,0.679,6.3,80.5,33,101444,2047.7,25.9,1,4.14,67.5
24574,0,0,0,-43.529731,172.578979,0,A,1,0,0,138.7,11.3,-0.742,0.331,0.611,28.8,81.1,45.9,101444,2047.7,25.1,1,4.16,40.5
24624,0,0,0,-43.529731,172.578979,0,A,1,0,0,138.7,11.3,-0.743,0.362,0.588,16.8,83,38.4,101444,2047.7,25.9,1,4.17,44.7
24685,0,0,0,-43.529731,172.578979,0,A,1,0,0,138.7,11.3,-0.869,0.396,0.44,41.1,39.8,36.7,101444,2047.7,25.9,1,4.16,45.2
24725,0,0,0,-43.529731,172.578979,0,A,1,0,0,138.7,11.3,-0.739,0.504,0.446,42.2,38,33.1,101446,2047.7,25.6,1,4.14,72.2
24774,0,0,0,-43.529731,172.578979,0,A,1,0,0,138.7,11.3,-0.721,0.533,0.377,27.7,44,44.2,101446,2047.7,25.6,1,4.17,45.7
24824,0,0,0,-43.529731,172.578979,0,A,1,0,0,138.7,11.3,-0.743,0.546,0.363,23.4,42.2,35.4,101446,2047.7,25.6,1,4.17,42.4
24874,0,0,0,-43.529731,172.578979,0,A,1,0,0,138.7,11.3,-0.735,0.606,0.311,29.4,42.7,53.7,101446,2047.7,25.5,1,4.12,75.9
24924,0,0,0,-43.529731,172.578979,0,A,1,0,0,138.7,11.3,-0.666,0.632,0.248,28.1,43.8,40.7,101446,2047.7,25.4,1,4.17,44.7
24974,0,0,0,-43.529731,172.578979,0,A,1,0,0,138.7,11.3,-0.844,0.718,0.249,17.9,34.5,7.2,101446,2047.7,25.4,1,4.17,48
25024,0,0,0,-43.529731,172.578979,0,A,1,0,0,138.7,11.3,-0.72,0.581,0.2,-2,25.2,-17.9,101446,2047.7,25.7,1,4.13,71.2
25074,0,0,0,-43.529731,172.578979,0,A,1,0,0,138.7,11.3,-0.75,0.747,0.112,15.4,15.2,8.7,101446,2047.7,25.2,1,4.17,46.6
25124,0,0,0,-43.529731,172.578979,0,A,1,0,0,138.7,11.3,-0.736,0.596,0.156,-16.8,12.3,-48.4,101446,2047.7,25.2,1,4.18,45.2
25174,0,0,0,-43.529731,172.578979,0,A,1,0,0,138.7,11.3,-0.655,0.505,0.221,-13.9,35.2,-5.4,101446,2047.7,25.7,1,4.17,48.9
25224,0,0,0,-43.529731,172.578979,0,A,1,0,0,138.7,11.3,-0.849,0.633,0.138,-6,54.5,7.4,101444,2047.7,25.4,1,4.16,44.7
25274,0,0,0,-43.529731,172.578979,0,A,1,0,0,138.7,11.3,-0.932,0.782,0.06,-20.7,17.4,-7.6,101444,2047.7,25.4,1,4.16,47.1
25324,0,0,0,-43.529731,172.578979,0,A,1,0,0,138.7,11.3,-0.84,0.52,0.118,-4.3,2.7,-30.8,101444,2047.7,25.4,1,4.18,46.1
25374,0,0,0,-43.529731,172.578979,0,A,1,0,0,138.7,11.3,-0.95,0.641,0.268,-32.3,-14.8,-28.5,101444,2047.7,25.4,1,4.12,76.4
25424,0,0,0,-43.529731,172.578979,0,A,1,0,0,138.7,11.3,-0.79,0.495,0.146,-13.2,-13.7,-11.5,101445,2047.7,25.4,1,4.17,38.7
25474,0,0,0,-43.529731,172.578979,0,A,1,0,0,138.7,11.3,-0.833,0.556,0.191,-12.4,-5.5,2,101444,2047.7,25.8,1,4.17,39.1
25524,0,0,0,-43.529731,172.578979,0,A,1,0,0,138.7,11.3,-0.804,0.546,0.234,-6.1,-11.9,7.1,101444,2047.7,25.6,1,4.14,68.9
25574,0,0,0,-43.529731,172.578979,0,A,1,0,0,138.7,11.3,-0.862,0.548,0.176,-4.3,-11.8,10.8,101444,2047.7,25.6,1,4.15,71.7
25624,0,0,0,-43.529731,172.578979,0,A,1,0,0,138.7,11.3,-0.824,0.566,0.149,24,7.9,8.4,101444,2047.7,25.4,1,4.17,44.7
25685,0,0,0,-43.529731,172.578979,0,A,1,0,0,138.7,11.3,-0.836,0.596,0.129,-16.3,15.1,14.4,101447,2047.7,25.8,1,4.17,48.4
25725,0,0,0,-43.529731,172.578979,0,A,1,0,0,138.7,11.3,-0.882,0.566,0.162,-20.5,14,20.9,101447,2047.7,25.8,1,4.14,75.4
25774,0,0,0,-43.529731,172.578979,0,A,1,0,0,138.7,11.3,-0.83,0.542,0.178,-33,10.1,20.3,101447,2047.7,25.2,1,4.17,47.5
25824,0,0,0,-43.529731,172.578979,0,A,1,0,0,138.7,11.3,-0.762,0.56,0.202,-23.3,15.3,32,101447,2047.7,25.7,1,4.16,46.1
25874,0,0,0,-43.529731,172.578979,0,A,1,0,0,138.7,11.3,-0.753,0.55,0.188,-24.2,21.8,21,101447,2047.7,25.7,1,4.13,76.8
25924,0,0,0,-43.529731,172.578979,0,A,1,0,0,138.7,11.3,-0.741,0.554,0.146,-16.8,24,28,101446,2047.7,25.4,1,4.16,45.7
25974,0,0,0,-43.529731,172.578979,0,A,1,0,0,138.7,11.3,-0.718,0.605,0.194,-19.3,26.5,11.2,101446,2047.7,25.7,1,4.16,48
26024,0,0,0,-43.529731,172.578979,0,A,1,0,0,138.7,11.3,-0.721,0.613,0.132,-19.9,27.8,15.9,101446,2047.7,25.7,1,4.16,46.6
26074,0,0,0,-43.529731,172.578979,0,A,1,0,0,138.7,11.3,-0.744,0.648,0.183,-26.9,34.3,4.8,101446,2047.7,25.7,1,4.14,73.6
26124,0,0,0,-43.529731,172.578979,0,A,1,0,0,138.7,11.3,-0.778,0.623,0.155,-15.9,43.7,0.6,101446,2047.7,25.4,1,4.17,47.5
26174,0,0,0,-43.529731,172.578979,0,A,1,0,0,138.7,11.3,-0.775,0.635,0.146,-18.4,43.7,-5.7,101445,2047.7,25.4,1,4.16,49.4
26224,0,0,0,-43.529731,172.578979,0,A,1,0,0,138.7,11.3,-0.776,0.612,0.135,-21.9,29.9,1.4,101445,2047.7,25.6,1,4.12,75.9
26274,0,0,0,-43.529731,172.578979,0,A,1,0,0,138.7,11.3,-0.788,0.608,0.128,-22.2,26.5,-1.6,101445,2047.7,25.5,1,4.16,48
26324,0,0,0,-43.529731,172.578979,0,A,1,0,0,138.7,11.3,-0.807,0.618,0.16,-14.2,30.2,-4.5,101445,2047.7,25.5,1,4.17,39.1
26374,0,0,0,-43.529731,172.578979,0,A,1,0,0,138.7,11.3,-0.77,0.609,0.122,-24.4,26.6,-5.6,101445,2047.7,25.7,1,4.14,69.8
26424,0,0,0,-43.529731,172.578979,0,A,1,0,0,138.7,11.3,-0.77,0.585,0.098,-17.9,10.6,-5.5,101447,2047.7,25.3,1,4.17,39.1
26474,0,0,0,-43.529731,172.578979,0,A,1,0,0,138.7,11.3,-0.813,0.592,0.143,-24.9,13.2,-9,101447,2047.7,25.7,1,4.17,41.9
26524,0,0,0,-43.529731,172.578979,0,A,1,0,0,138.7,11.3,-0.833,0.588,0.108,-16.4,5.1,-3.6,101447,2047.7,25.7,1,4.17,39.6
26574,0,0,0,-43.529731,172.578979,0,A,1,0,0,138.7,11.3,-0.854,0.593,0.131,-19.1,6.2,1.3,101447,2047.7,25.7,1,4.17,40.5
26625,0,0,0,-43.529731,172.578979,0,A,1,0,0,138.7,11.3,-0.83,0.613,0.136,-20.1,-2.1,8.1,101447,2047.7,25,1,4.13,77.7
26685,0,0,0,-43.529731,172.578979,0,A,1,0,0,138.7,11.3,-0.821,0.604,0.181,-5.1,-14,10.4,101447,2047.7,25,1,4.17,48.9
26725,0,0,0,-43.529731,172.578979,0,A,1,0,0,138.7,11.3,-0.805,0.623,0.191,10,-10.2,4.8,101447,2047.7,25.8,1,4.14,75.9
26774,0,0,0,-43.529731,172.578979,0,A,1,0,0,138.7,11.3,-0.779,0.586,0.149,36.3,-18.8,1,101447,2047.7,25.5,1,4.17,48.9
26824,0,0,0,-43.529731,172.578979,0,A,1,0,0,138.7,11.3,-0.781,0.583,0.141,38,-7.7,-6.8,101447,2047.7,25.5,1,4.16,46.6
26874,0,0,0,-43.529731,172.578979,0,A,1,0,0,138.7,11.3,-0.766,0.552,0.082,42,-12.8,-8.2,101447,2047.7,25.7,1,4.13,77.3
26924,0,0,0,-43.529731,172.578979,0,A,1,0,0,138.7,11.3,-0.813,0.582,0.074,31.3,-15.2,-5.4,101446,2047.7,25.7,1,4.17,46.1
26974,0,0,0,-43.529731,172.578979,0,A,1,0,0,138.7,11.3,-0.821,0.576,0.059,30.3,-7.3,-19.6,101446,2047.7,25.7,1,4.16,47.5
27024,0,0,0,-43.529731,172.578979,0,A,1,0,0,138.7,11.3,-0.833,0.573,0.03,31.3,4.5,-20.7,101446,2047.7,25.5,1,4.16,45.2
27074,0,0,0,-43.529731,172.578979,0,A,1,0,0,138.7,11.3,-0.806,0.575,-0.035,4.5,-2.6,-13.4,101446,2047.7,25.4,1,4.12,48.4
27124,0,0,0,-43.529731,172.578979,0,A,1,0,0,138.7,11.3,-0.811,0.607,0.037,-15.9,-24.1,3,101446,2047.7,25.4,1,4.14,69.8
27174,0,0,0,-43.529731,172.578979,0,A,1,0,0,138.7,11.3,-0.828,0.614,0.086,-20.1,-21.2,1.6,101446,2047.7,25.4,1,4.17,46.1
27224,0,0,0,-43.529731,172.578979,0,A,1,0,0,138.7,11.3,-0.866,0.598,0.098,-3.4,-15.7,1.3,101446,2047.7,25.3,1,4.14,73.1
27274,0,0,0,-43.529731,172.578979,0,A,1,0,0,138.7,11.3,-0.877,0.57,0.12,-4.4,-3.9,4.5,101446,2047.7,25.3,1,4.16,48
27324,0,0,0,-43.529731,172.578979,0,A,1,0,0,138.7,11.3,-0.826,0.567,0.104,4.3,-3.8,7.3,101446,2047.7,25.5,1,4.16,48.9
27374,0,0,0,-43.529731,172.578979,0,A,1,0,0,138.7,11.3,-0.812,0.559,0.113,7.7,1.7,3.8,101446,2047.7,25.6,1,4.16,43.8
27424,0,0,0,-43.529731,172.578979,0,A,1,0,0,138.7,11.3,-0.791,0.541,0.09,11.8,8,-2.5,101447,2047.7,25.6,1,4.17,41
27474,0,0,0,-43.529731,172.578979,0,A,1,0,0,138.7,11.3,-0.784,0.556,0.094,4.3,-0.5,1,101447,2047.7,25.6,1,4.16,42.4
27524,0,0,0,-43.529731,172.578979,0,A,1,0,0,138.7,11.3,-0.799,0.578,0.092,0.4,9.1,-4.6,101447,2047.7,25.9,1,4.17,41
27574,0,0,0,-43.529731,172.578979,0,A,1,0,0,138.7,11.3,-0.809,0.578,0.095,2.2,0.2,-1.2,101447,2047.7,25.9,1,4.14,71.7
27625,0,0,0,-43.529731,172.578979,0,A,1,0,0,138.7,11.3,-0.844,0.583,0.161,-11.2,-10.1,1.8,101447,2047.7,25.2,1,4.17,46.6
27685,0,0,0,-43.529731,172.578979,0,A,1,0,0,138.7,11.3,-0.829,0.584,0.176,4.5,2.1,4.3,101446,2047.7,25.4,1,4.16,45.7
27724,0,0,0,-43.529731,172.578979,0,A,1,0,0,138.7,11.3,-0.771,0.582,0.15,6.3,7.9,-0.1,101446,2047.7,25.4,1,4.14,73.6
27774,0,0,0,-43.529731,172.578979,0,A,1,0,0,138.7,11.3,-0.77,0.574,0.096,13.4,6.5,-4.5,101446,2047.7,25.4,1,4.16,46.6
27824,0,0,0,-43.529731,172.578979,0,A,1,0,0,138.7,11.3,-0.799,0.569,0.098,0.7,-2.9,-2.4,101446,2047.7,25.6,1,4.17,46.6
27874,0,0,0,-43.529731,172.578979,0,A,1,0,0,138.7,11.3,-0.828,0.582,0.094,4,-5.4,-2.9,101446,2047.7,25.6,1,4.16,48.4
27924,0,0,0,-43.529731,172.578979,0,A,1,0,0,138.7,11.3,-0.846,0.572,0.081,7.3,3.1,-7.1,101446,2047.7,25.8,1,4.13,76.8
27974,0,0,0,-43.529731,172.578979,0,A,1,0,0,138.7,11.3,-0.832,0.572,0.05,8.2,1.5,-2.1,101446,2047.7,25.6,1,4.16,48.9
28024,0,0,0,-43.529731,172.578979,0,A,1,0,0,138.7,11.3,-0.844,0.576,0.06,1.5,5.3,-2.5,101446,2047.7,25.6,1,4.16,47.1
28074,0,0,0,-43.529731,172.578979,0,A,1,0,0,138.7,11.3,-0.823,0.576,0.044,1.8,-0.1,1.2,101446,2047.7,25.7,1,4.11,79.6
28124,0,0,0,-43.529731,172.578979,0,A,1,0,0,138.7,11.3,-0.838,0.576,0.047,-3.6,3.2,-1.3,101446,2047.7,25.5,1,4.16,48
28174,0,0,0,-43.529731,172.578979,0,A,1,0,0,138.7,11.3,-0.852,0.574,0.061,-2.9,-0.1,2.9,101449,2047.7,25.5,1,4.13,75.9
28224,0,0,0,-43.529731,172.578979,0,A,1,0,0,138.7,11.3,-0.849,0.564,0.057,-5,-2.1,3.8,101449,2047.7,25,1,4.17,46.6
28274,0,0,0,-43.529731,172.578979,0,A,1,0,0,138.7,11.3,-0.834,0.543,0.082,-2.6,-0.4,7.9,101449,2047.7,25.6,1,4.14,79.6
28324,0,0,0,-43.529731,172.578979,0,A,1,0,0,138.7,11.3,-0.862,0.547,0.13,-5.7,1.7,9.6,101449,2047.7,25.6,1,4.17,41
28374,0,0,0,-43.529731,172.578979,0,A,1,0,0,138.7,11.3,-0.904,0.53,0.144,3.5,-4.2,29,101451,2047.7,25.6,1,4.16,44.3
28424,0,0,0,-43.529731,172.578979,0,A,1,0,0,138.7,11.3,-0.862,0.563,0.17,-2,-9,27.5,101451,2047.7,25.5,1,4.13,69.8
28474,0,0,0,-43.529731,172.578979,0,A,1,0,0,138.7,11.3,-0.779,0.591,0.147,16.9,-6.6,9.8,101451,2047.7,25.5,1,4.17,43.3
28524,0,0,0,-43.529731,172.578979,0,A,1,0,0,138.7,11.3,-0.782,0.629,0.114,16.4,-8.5,5.6,101451,2047.7,25.7,1,4.17,40.5
28574,0,0,0,-43.529731,172.578979,0,A,1,0,0,138.7,11.3,-0.747,0.654,0.057,17,-14.3,1.8,101451,2047.7,25.6,1,4.15,51.2
28625,0,0,0,-43.529731,172.578979,0,A,1,0,0,138.7,11.3,-0.763,0.649,0.029,20,-31,14.9,101451,2047.7,25.6,1,4.16,43.8
28685,0,0,0,-43.529731,172.578979,0,A,1,0,0,138.7,11.3,-0.725,0.7,0.065,-0.1,-26.4,8.7,101451,2047.7,25.4,1,4.17,48.9
28724,0,0,0,-43.529731,172.578979,0,A,1,0,0,138.7,11.3,-0.73,0.697,0.078,-5.7,-4.9,-9,101451,2047.7,25.5,1,4.13,75.4
28774,0,0,0,-43.529731,172.578979,0,A,1,0,0,138.7,11.3,-0.748,0.653,0.037,3.8,7.9,-16,101451,2047.7,25.5,1,4.13,79.1
28824,0,0,0,-43.529731,172.578979,0,A,1,0,0,138.7,11.3,-0.731,0.647,0.015,-3.3,1.4,-5.2,101451,2047.7,25.1,1,4.17,46.1
28874,0,0,0,-43.529731,172.578979,0,A,1,0,0,138.7,11.3,-0.751,0.655,0.003,-7.8,-4.9,-8.8,101450,2047.7,25.7,1,4.15,49.4
28924,0,0,0,-43.529731,172.578979,0,A,1,0,0,138.7,11.3,-0.759,0.642,0.014,-17.9,-14.5,-8,101450,2047.7,25.7,1,4.14,75.9
28974,0,0,0,-43.529731,172.578979,0,A,1,0,0,138.7,11.3,-0.792,0.636,0.085,-30.1,-17.3,1.7,101450,2047.7,25.1,1,4.17,47.1
29024,0,0,0,-43.529731,172.578979,0,A,1,0,0,138.7,11.3,-0.787,0.59,0.07,-23.1,-14.9,1.1,101450,2047.7,25.7,1,4.16,48.4
29074,0,0,0,-43.529731,172.578979,0,A,1,0,0,138.7,11.3,-0.763,0.648,0.151,-23.8,-14.8,18.2,101450,2047.7,25.7,1,4.16,48.4
29124,0,0,0,-43.529731,172.578979,0,A,1,0,0,138.7,11.3,-0.731,0.651,0.188,-27.5,5.8,1.6,101448,2047.7,25.6,1,4.16,47.5
29174,0,0,0,-43.529731,172.578979,0,A,1,0,0,138.7,11.3,-0.734,0.641,0.139,-8.5,-17.6,27.4,101448,2047.7,25.6,1,4.17,48.9
29224,0,0,0,-43.529731,172.578979,0,A,1,0,0,138.7,11.3,-0.733,0.689,0.228,0.4,0.4,17.5,101448,2047.7,25.6,1,4.14,73.6
29274,0,0,0,-43.529731,172.578979,0,A,1,0,0,138.7,11.3,-0.788,0.626,0.172,10.5,-55.2,66.2,101448,2047.7,25.4,1,4.13,77.3
29324,0,0,0,-43.529731,172.578979,0,A,1,0,0,138.7,11.3,-0.673,0.773,0.321,-12.9,-11.3,52.6,101448,2047.7,25.5,1,4.17,43.8
29374,0,0,0,-43.529731,172.578979,0,A,1,0,0,138.7,11.3,-0.613,0.615,0.187,29.3,-97.8,34.7,101449,2047.7,25.5,1,4.17,48.4
29424,0,0,0,-43.529731,172.578979,0,A,1,0,0,138.7,11.3,-0.569,0.606,0.337,4.3,-111.6,33.6,101449,2047.7,25.6,1,4.13,68.9
29474,0,0,0,-43.529731,172.578979,0,A,1,0,0,138.7,11.3,-0.528,0.676,0.396,-24.2,-134.1,47.5,101449,2047.7,25.5,1,4.17,40.1
29524,0,0,0,-43.529731,172.578979,0,A,1,0,0,138.7,11.3,-0.32,0.583,0.251,-37.7,-119.8,64.5,101449,2047.7,25.6,1,4.16,40.1
29574,0,0,0,-43.529731,172.578979,0,A,1,0,0,138.7,11.3,-0.27,0.714,0.588,-52.4,-99,20.5,101449,2047.7,25.6,1,4.17,46.1
29635,0,0,0,-43.529731,172.578979,0,A,1,0,0,138.7,11.3,-0.256,0.77,0.609,-43.4,-49,-28.8,101449,2047.7,25.7,1,4.17,45.2
29676,0,0,0,-43.529731,172.578979,0,A,1,0,0,138.7,11.3,-0.237,0.67,0.615,-29.3,-36.3,-56.8,101449,2047.7,25.7,1,4.17,47.1
29724,0,0,0,-43.529731,172.578979,0,A,1,0,0,138.7,11.3,-0.36,0.723,0.591,-25.4,-52.6,-8.5,101449,2047.7,25.7,1,4.17,46.6
29774,0,0,0,-43.529731,172.578979,0,A,1,0,0,138.7,11.3,-0.333,0.725,0.727,-30.5,-84.5,22.7,101449,2047.7,25.6,1,4.12,76.8
29824,0,0,0,-43.529731,172.578979,0,A,1,0,0,138.7,11.3,-0.246,0.737,0.762,-17.1,-49,8.2,101449,2047.7,25.9,1,4.17,43.8
29874,0,0,0,-43.529731,172.578979,0,A,1,0,0,138.7,11.3,-0.283,0.693,0.924,-34.9,-25.3,-6.4,101449,2047.7,25.9,1,4.16,47.1
29924,0,0,0,-43.529731,172.578979,0,A,1,0,0,138.7,11.3,-0.219,0.689,0.864,-36.5,-53.1,0.6,101449,2047.7,25.9,1,4.17,42.4
29974,0,0,0,-43.529731,172.578979,0,A,1,0,0,138.7,11.3,-0.162,0.709,0.962,-34.8,-58.2,-4.1,101449,2047.7,25.6,1,4.16,44.7
30024,0,0,0,-43.529731,172.578979,0,A,1,0,0,138.7,11.3,-0.162,0.587,0.799,2.2,-7.3,-41.1,101449,2047.7,25.6,1,4.16,45.7
30074,0,0,0,-43.529731,172.578979,0,A,1,0,0,138.7,11.3,-0.173,0.553,0.814,-43.5,-14.9,-23.4,101449,2047.7,25.6,1,4.17,45.2
30124,0,0,0,-43.529731,172.578979,0,A,1,0,0,138.7,11.3,-0.127,0.558,0.929,-56.1,-41.5,-20.2,101450,2047.7,25.1,1,4.14,73.6
30174,0,0,0,-43.529731,172.578979,0,A,1,0,0,138.7,11.3,-0.146,0.512,0.953,-45.9,-0.6,-34.7,101450,2047.7,25.1,1,4.17,46.6
30224,0,0,0,-43.529731,172.578979,0,A,1,0,0,138.7,11.3,-0.158,0.477,0.875,-50.1,-10.1,-31.5,101450,2047.7,25.5,1,4.17,43.8
30274,0,0,0,-43.529731,172.578979,0,A,1,0,0,138.7,11.3,-0.139,0.486,0.937,-54.6,-4,-28.1,101450,2047.7,25.6,1,4.13,70.8
30324,0,0,0,-43.529731,172.578979,0,A,1,0,0,138.7,11.3,-0.158,0.477,1.023,-73.7,-1.9,-32,101450,2047.7,25.6,1,4.17,42.4
30374,0,0,0,-43.529731,172.578979,0,A,1,0,0,138.7,11.3,-0.172,0.313,0.893,-76.3,-26.6,-18.5,101449,2047.7,25.6,1,4.2,40.1
30424,0,0,0,-43.529731,172.578979,0,A,1,0,0,138.7,11.3,-0.156,0.259,1.054,-35,-1.7,-9.6,101449,2047.7,25.6,1,4.17,35.9
30474,0,0,0,-43.529731,172.578979,0,A,1,0,0,138.7,11.3,-0.094,0.299,1.046,-17,12.7,-18.9,101449,2047.7,25.6,1,4.17,37.7
30524,0,0,0,-43.529731,172.578979,0,A,1,0,0,138.7,11.3,-0.142,0.224,1.025,-53.5,-24.8,3.5,101449,2047.7,25.6,1,4.17,37.3
30574,0,0,0,-43.529731,172.578979,0,A,1,0,0,138.7,11.3,-0.122,0.063,0.902,-80.8,-14,5,101449,2047.7,25.7,1,4.17,48
30636,0,0,0,-43.529731,172.578979,0,A,1,0,0,138.7,11.3,-0.113,0.053,0.923,-2.9,8.2,-11.6,101450,2047.7,25.7,1,4.16,43.8
30676,0,0,0,-43.529731,172.578979,0,A,1,0,0,138.7,11.3,-0.128,0.055,0.95,-13.1,-4.3,-2,101450,2047.7,25.1,1,4.16,47.5
30725,0,0,0,-43.529731,172.578979,0,A,1,0,0,138.7,11.3,-0.068,0.021,1.001,-15.7,-22,3.7,101450,2047.7,25.9,1,4.17,44.7
30775,0,0,0,-43.529731,172.578979,0,A,1,0,0,138.7,11.3,-0.11,0.013,0.978,-12.6,-30.4,5.2,101450,2047.7,25.9,1,4.14,76.4
30825,0,0,0,-43.529731,172.578979,0,A,1,0,0,138.7,11.3,-0.069,0.068,1.021,-9.5,-32.9,4.1,101450,2047.7,25.4,1,4.13,73.1
30875,0,0,0,-43.529731,172.578979,0,A,1,0,0,138.7,11.3,-0.088,0.074,1.013,-15.5,-19.9,1,101450,2047.7,25.8,1,4.17,44.7
30925,0,0,0,-43.529731,172.578979,0,A,1,0,0,138.7,11.3,-0.096,0.06,1,-13,-26.6,11.7,101450,2047.7,25.8,1,4.17,43.8
30975,0,0,0,-43.529731,172.578979,0,A,1,0,0,138.7,11.3,-0.093,0.045,0.973,-13.8,-5.4,8.8,101450,2047.7,25.7,1,4.16,47.5
31025,0,0,0,-43.529731,172.578979,0,A,1,0,0,138.7,11.3,-0.088,0.03,0.941,-18.2,-19.3,13.1,101450,2047.7,25.9,1,4.16,45.7
31075,0,0,0,-43.529731,172.578979,0,A,1,0,0,138.7,11.3,-0.028,-0.005,1.063,-23,-23,18.5,101450,2047.7,25.9,1,4.17,45.7
31125,0,0,0,-43.529731,172.578979,0,A,1,0,0,138.7,11.3,-0.003,-0.049,1.051,-17.9,-12,11.8,101450,2047.7,25.6,1,4.14,72.2
31175,0,0,0,-43.529731,172.578979,0,A,1,0,0,138.7,11.3,0.025,-0.041,0.991,-27.7,-32.3,15.1,101450,2047.7,25.6,1,4.17,45.7
31225,0,0,0,-43.529731,172.578979,0,A,1,0,0,138.7,11.3,0.058,-0.058,0.968,-18,-17.8,11.5,101450,2047.7,25.6,1,4.17,43.3
31275,0,0,0,-43.529731,172.578979,0,A,1,0,0,138.7,11.3,0.06,-0.111,0.959,-26.6,10.7,11.3,101450,2047.7,25.6,1,4.13,76.4
31325,0,0,0,-43.529731,172.578979,0,A,1,0,0,138.7,11.3,0.025,-0.137,0.982,-26.5,-10.1,13.5,101450,2047.7,25.6,1,4.14,61
31375,0,0,0,-43.529731,172.578979,0,A,1,0,0,138.7,11.3,0.062,-0.145,1.013,-22.3,5.5,15.7,101450,2047.7,25.6,1,4.17,41
31425,0,0,0,-43.529731,172.578979,0,A,1,0,0,138.7,11.3,0.051,-0.163,1.004,-16.5,9.1,11.6,101450,2047.7,25.4,1,4.17,37.3
31475,0,0,0,-43.529731,172.578979,0,A,1,0,0,138.7,11.3,0.054,-0.178,1.041,-12,12.9,9.5,101450,2047.7,25.6,1,4.17,38.7
31525,0,0,0,-43.529731,172.578979,0,A,1,0,0,138.7,11.3,0.053,-0.199,1.001,-9.7,8.4,6.8,101450,2047.7,25.6,1,4.18,36.8
31575,0,0,0,-43.529731,172.578979,0,A,1,0,0,138.7,11.3,0.038,-0.194,1.036,-4.4,7.5,7.1,101450,2047.7,25.9,1,4.17,44.3
31636,0,0,0,-43.529731,172.578979,0,A,1,0,0,138.7,11.3,0.015,-0.18,1,3.2,13.3,7.9,101450,2047.7,25.6,1,4.16,43.8
31676,0,0,0,-43.529731,172.578979,0,A,1,0,0,138.7,11.3,0,-0.185,0.983,0.9,3,8.5,101450,2047.7,25.6,1,4.17,46.1
31725,0,0,0,-43.529731,172.578979,0,A,1,0,0,138.7,11.3,-0.003,-0.179,1,4.6,4.8,10.3,101450,2047.7,25.9,1,4.17,42.9
31775,0,0,0,-43.529731,172.578979,0,A,1,0,0,138.7,11.3,0.002,-0.175,0.973,-6.5,9,14.6,101450,2047.7,25.6,1,4.16,45.7
31825,0,0,0,-43.529731,172.578979,0,A,1,0,0,138.7,11.3,-0.03,-0.2,1.027,-19,5.1,19.5,101449,2047.7,25.6,1,4.16,42.9
31875,0,0,0,-43.529731,172.578979,0,A,1,0,0,138.7,11.3,-0.024,-0.207,1.01,-0.9,5.5,14.4,101449,2047.7,25.4,1,4.13,76.8
31925,0,0,0,-43.529731,172.578979,0,A,1,0,0,138.7,11.3,-0.019,-0.193,0.99,8.9,1.2,4.1,101449,2047.7,25.6,1,4.16,45.7
31975,0,0,0,-43.529731,172.578979,0,A,1,0,0,138.7,11.3,-0.007,-0.216,0.971,4.8,3.5,6.9,101449,2047.7,25.6,1,4.14,76.4
32025,0,0,0,-43.529731,172.578979,0,A,1,0,0,138.7,11.3,-0.013,-0.179,0.99,9.9,-2.9,1.8,101449,2047.7,25.4,1,4.17,45.7
32075,0,0,0,-43.529731,172.578979,0,A,1,0,0,138.7,11.3,-0.021,-0.141,1.06,-0.4,8.3,4.3,101449,2047.7,25.7,1,4.17,47.5
32125,0,0,0,-43.529731,172.578979,0,A,1,0,0,138.7,11.3,-0.071,-0.16,0.959,4.3,9.9,2,101449,2047.7,25.7,1,4.14,75
32175,0,0,0,-43.529731,172.578979,0,A,1,0,0,138.7,11.3,-0.063,-0.181,1.006,3.8,19.5,1.8,101449,2047.7,25.3,1,4.16,47.5
32225,0,0,0,-43.529731,172.578979,0,A,1,0,0,138.7,11.3,-0.103,-0.114,0.996,2.5,11.8,-0.7,101449,2047.7,25.7,1,4.16,44.3
32275,0,0,0,-43.529731,172.578979,0,A,1,0,0,138.7,11.3,-0.075,-0.138,1.025,10.5,4.7,-1.2,101449,2047.7,25.7,1,4.17,47.1
32325,0,0,0,-43.529731,172.578979,0,A,1,0,0,138.7,11.3,-0.08,-0.13,0.997,4.4,7.4,-1.8,101449,2047.7,25.7,1,4.13,72.6
32375,0,0,0,-43.529731,172.578979,0,A,1,0,0,138.7,11.3,-0.079,-0.135,0.999,6.8,0.8,-1.3,101449,2047.7,25.7,1,4.14,73.1
32425,0,0,0,-43.529731,172.578979,0,A,1,0,0,138.7,11.3,-0.053,-0.139,1.01,18.5,4.1,1.3,101449,1883.5,25.7,0,4.17,35.9
32475,0,0,0,-43.529731,172.578979,0,A,1,0,0,138.7,11.3,-0.101,-0.082,1.013,8.4,4.7,6.5,101449,129,25.4,0,4.14,68
32525,0,0,0,-43.529731,172.578979,0,A,1,0,0,138.7,11.3,-0.136,-0.095,0.978,10.7,8,1.2,101449,129,25.8,0,4.18,37.3
32575,0,0,0,-43.529731,172.578979,0,A,1,0,0,138.7,11.3,-0.081,-0.11,0.941,-20.4,8.5,-1.3,101448,27.2,25.8,0,4.17,46.1
32636,0,0,0,-43.529731,172.578979,0,A,1,0,0,138.7,11.3,-0.103,-0.109,0.992,-1.2,8.7,-0.4,101448,525.2,25.8,0,4.17,43.3
32675,0,0,0,-43.529731,172.578979,0,A,1,0,0,138.7,11.3,-0.111,-0.09,0.988,2.7,-2.1,0.3,101448,525.2,25.7,0,4.12,75.4
32725,0,0,0,-43.529731,172.578979,0,A,1,0,0,138.7,11.3,-0.11,-0.1,1.063,-4.9,5.4,-2.1,101448,26.5,25.8,0,4.17,42.9
32775,0,0,0,-43.529731,172.578979,0,A,1,0,0,138.7,11.3,-0.116,-0.101,1.067,0.3,-0.1,1.8,101448,163.7,25.8,0,4.16,42.9
32825,0,0,0,-43.529731,172.578979,0,A,1,0,0,138.7,11.3,-0.104,-0.122,0.914,-12.8,-9,2.7,101449,163.7,26.1,0,4.14,74
32875,0,0,0,-43.529731,172.578979,0,A,1,0,0,138.7,11.3,-0.123,-0.116,1.017,1,-2.6,2.9,101449,26.7,25.8,0,4.17,47.1
32925,0,0,0,-43.529731,172.578979,0,A,1,0,0,138.7,11.3,-0.114,-0.111,0.974,8.4,5,3.3,101449,26.2,25.8,0,4.14,71.7
32975,0,0,0,-43.529731,172.578979,0,A,1,0,0,138.7,11.3,-0.119,-0.099,0.951,-2.6,-6.9,2.1,101449,26.2,25.4,0,4.17,43.8
33025,0,0,0,-43.529731,172.578979,0,A,1,0,0,138.7,11.3,-0.125,-0.117,1.04,9.5,13.7,1.6,101449,25.7,25.4,0,4.17,42.4
33075,0,0,0,-43.529731,172.578979,0,A,1,0,0,138.7,11.3,-0.145,-0.103,0.992,-8.2,11.8,4.6,101449,25.7,25.4,0,4.16,43.8
33125,0,0,0,-43.529731,172.578979,0,A,1,0,0,138.7,11.3,-0.127,-0.099,1.024,5.4,11.4,5.5,101449,25.7,25.4,0,4.17,41
33175,0,0,0,-43.529731,172.578979,0,A,1,0,0,138.7,11.3,-0.122,-0.068,0.965,-3.1,10.2,6.8,101449,25.7,25.1,0,4.14,72.2
33225,0,0,0,-43.529731,172.578979,0,A,1,0,0,138.7,11.3,-0.152,-0.099,0.994,-3.4,0.7,9.9,101449,25.5,25.1,0,4.17,41.5
33275,0,0,0,-43.529731,172.578979,0,A,1,0,0,138.7,11.3,-0.149,-0.09,1.016,-1.8,9.8,5.7,101449,25.5,25.4,0,4.15,45.7
33325,0,0,0,-43.529731,172.578979,0,A,1,0,0,138.7,11.3,-0.195,-0.06,0.985,-9.9,9.9,6.3,101450,25.5,25.2,0,4.14,67.1
33375,0,0,0,-43.529731,172.578979,0,A,1,0,0,138.7,11.3,-0.202,-0.119,0.994,-8.7,6.2,11.7,101450,25.5,25.2,0,4.19,39.1
33425,0,0,0,-43.529731,172.578979,0,A,1,0,0,138.7,11.3,-0.176,-0.106,0.964,-10.2,17.8,11.5,101450,25.5,25.6,0,4.14,62.4
33475,0,0,0,-43.529731,172.578979,0,A,1,0,0,138.7,11.3,-0.166,-0.128,1,-7.9,-7,2.4,101450,25.7,25.2,0,4.17,39.1
33525,0,0,0,-43.529731,172.578979,0,A,1,0,0,138.7,11.3,-0.167,-0.125,1.049,2.9,6.6,-1.2,101450,25.2,25.2,0,4.14,65.7
33575,0,0,0,-43.529731,172.578979,0,A,1,0,0,138.7,11.3,-0.208,-0.107,1.003,8.5,1.6,-4.9,101450,25.2,25.4,0,4.17,45.7
33636,0,0,0,-43.529731,172.578979,0,A,1,0,0,138.7,11.3,-0.152,-0.076,0.913,-6.4,8.8,-9.3,101450,25.5,25.7,0,4.17,41
33675,0,0,0,-43.529731,172.578979,0,A,1,0,0,138.7,11.3,-0.197,-0.14,0.959,-9.3,-11.8,-8,101450,26,25.7,0,4.12,73.6
33725,0,0,0,-43.529731,172.578979,0,A,1,0,0,138.7,11.3,-0.148,-0.02,1.127,0.2,-2.3,1.4,101450,26,25.1,0,4.17,43.3
33775,0,0,0,-43.529731,172.578979,0,A,1,0,0,138.7,11.3,-0.246,-0.104,1.028,-5.3,2.5,-3.8,101450,24.7,25.7,0,4.16,43.8
33825,0,0,0,-43.529731,172.578979,0,A,1,0,0,138.7,11.3,-0.197,-0.121,1.02,1.5,2.5,-5.5,101450,25.7,25.7,0,4.16,41
33875,0,0,0,-43.529731,172.578979,0,A,1,0,0,138.7,11.3,-0.206,-0.137,0.981,-1,5.9,-6.8,101450,25.7,25.4,0,4.2,75.9
33925,0,0,0,-43.529731,172.578979,0,A,1,0,0,138.7,11.3,-0.214,-0.17,0.95,-7.6,3.3,-6.5,101450,25.5,25.8,0,4.18,42.9
33975,0,0,0,-43.529731,172.578979,0,A,1,0,0,138.7,11.3,-0.266,-0.161,0.971,-14.4,-4.9,-2.9,101450,26,25.8,0,4.14,58.7
34025,0,0,0,-43.529731,172.578979,0,A,1,0,0,138.7,11.3,-0.196,-0.103,0.979,-8.4,-4,-4.1,101450,26,25.6,0,4.14,71.7
34075,0,0,0,-43.529731,172.578979,0,A,1,0,0,138.7,11.3,-0.209,-0.132,1.001,-13.7,-1.6,-5,101450,25.5,25.5,0,4.17,44.7
34125,0,0,0,-43.529731,172.578979,0,A,1,0,0,138.7,11.3,-0.19,-0.159,1.022,-9.9,22.4,-1,101450,25.5,25.5,0,4.17,42.4
34175,0,0,0,-43.529731,172.578979,0,A,1,0,0,138.7,11.3,-0.169,-0.2,0.976,-4.5,-0.2,-0.2,101450,25.5,25.6,0,4.17,47.1
34225,0,0,0,-43.529731,172.578979,0,A,1,0,0,138.7,11.3,-0.277,-0.198,0.973,-21.5,-20.7,5.4,101450,25.7,25.2,0,4.17,44.3
34275,0,0,0,-43.529731,172.578979,0,A,1,0,0,138.7,11.3,-0.146,-0.177,1.172,-11.5,35.4,13.4,101451,25.2,25.2,0,4.15,45.2
34325,0,0,0,-43.529731,172.578979,0,A,1,0,0,138.7,11.3,-0.191,-0.147,0.969,-21.3,76.8,16.6,101451,25.2,25.7,0,4.17,35.9
34375,0,0,0,-43.529731,172.578979,0,A,1,0,0,138.7,11.3,-0.257,-0.184,0.864,-32.8,121.6,18.5,101451,25.7,25.2,0,4.14,68
34425,0,0,0,-43.529731,172.578979,0,A,1,0,0,138.7,11.3,-0.578,-0.237,0.905,-5.9,137.6,9.2,101451,25.2,25.2,0,4.17,41
34475,0,0,0,-43.529731,172.578979,0,A,1,0,0,138.7,11.3,-0.562,-0.133,0.824,-14.1,44.3,11.5,101451,25.2,25.5,0,4.14,67.1
34525,0,0,0,-43.529731,172.578979,0,A,1,0,0,138.7,11.3,-0.459,-0.291,0.928,-21.1,80.1,8.4,101450,25.7,25.4,0,4.14,69.8
34575,0,0,0,-43.529731,172.578979,0,A,1,0,0,138.7,11.3,-0.591,-0.2,0.688,-18.4,45.5,5.9,101450,25.2,25.4,0,4.17,46.6
34636,0,0,0,-43.529731,172.578979,0,A,1,0,0,138.7,11.3,-0.604,-0.299,0.775,-56.5,-19.5,6.6,101450,25.5,25.6,0,4.16,44.7
34675,0,0,0,-43.529731,172.578979,0,A,1,0,0,138.7,11.3,-0.529,-0.29,0.767,-22.5,-6,-3,101450,25.5,25.8,0,4.15,48
34725,0,0,0,-43.529731,172.578979,0,A,1,0,0,138.7,11.3,-0.695,-0.297,0.815,-69.9,61,31.7,101450,25.7,25.8,0,4.14,46.6
34775,0,0,0,-43.529731,172.578979,0,A,1,0,0,138.7,11.3,-0.558,-0.306,0.69,-19.8,146,39.8,101449,25.7,25.5,0,4.15,47.1
34825,0,0,0,-43.529731,172.578979,0,A,1,0,0,138.7,11.3,-0.791,-0.246,0.468,-41.1,191.5,62.6,101449,25.5,25.4,0,4.16,43.8
34875,0,0,0,-43.529731,172.578979,0,A,1,0,0,138.7,11.3,-0.819,-0.233,0.389,-30.3,188,57,101449,25.2,25.4,0,4.13,78.7
34925,0,0,0,-43.529731,172.578979,0,A,1,0,0,138.7,11.3,-0.958,-0.192,0.129,-16.9,216.7,62,101449,25.2,25.2,0,4.17,46.6
34975,0,0,0,-43.529731,172.578979,0,A,1,0,0,138.7,11.3,-1.085,-0.119,-0.039,-22.6,163.6,33.9,101449,25,25.7,0,4.15,48.4
35025,0,0,0,-43.529731,172.578979,0,A,1,0,0,138.7,11.3,-0.966,-0.235,-0.18,-4.9,112.4,15.1,101449,25.5,25.7,0,4.14,77.3
35075,0,0,0,-43.529731,172.578979,0,A,1,0,0,138.7,11.3,-0.922,-0.144,-0.163,33.2,182,20.4,101449,25.5,25.1,0,4.13,78.7
35125,0,0,0,-43.529731,172.578979,0,A,1,0,0,138.7,11.3,-0.912,-0.085,-0.347,22.6,166,24.4,101449,24.7,25.6,0,4.17,45.7
35175,0,0,0,-43.529731,172.578979,0,A,1,0,0,138.7,11.3,-0.85,-0.075,-0.462,5,146,21.8,101449,25.5,25.6,0,4.16,49.4
35225,0,0,0,-43.529731,172.578979,0,A,1,0,0,138.7,11.3,-0.777,-0.182,-0.559,-11,95.9,16.2,101449,25.7,25.8,0,4.13,77.3
35275,0,0,0,-43.529731,172.578979,0,A,1,0,0,138.7,11.3,-0.786,-0.093,-0.676,-3.5,40,4.6,101449,25.7,25.6,0,4.17,48.4
35325,0,0,0,-43.529731,172.578979,0,A,1,0,0,138.7,11.3,-0.767,-0.134,-0.624,-7.9,19.9,-4.6,101449,25.5,25.6,0,4.17,36.4
35375,0,0,0,-43.529731,172.578979,0,A,1,0,0,138.7,11.3,-0.831,-0.07,-0.704,-6.3,12.6,-14.4,101449,25.2,25.6,0,4.14,72.2
35425,0,0,0,-43.529731,172.578979,0,A,1,0,0,138.7,11.3,-0.738,-0.099,-0.603,13.4,-21.5,-16.2,101449,25.2,25.7,0,4.17,37.7
35475,0,0,0,-43.529731,172.578979,0,A,1,0,0,138.7,11.3,-0.889,-0.145,-0.655,-17.8,-9.1,-31.6,101449,25.5,25.7,0,4.17,39.1
35525,0,0,0,-43.529731,172.578979,0,A,1,0,0,138.7,11.3,-0.776,-0.161,-0.689,21.7,-84.6,-50.5,101450,25.7,25.9,0,4.15,62.4
35576,0,0,0,-43.529731,172.578979,0,A,1,0,0,138.7,11.3,-0.791,-0.13,-0.523,4.3,-57.1,-61.8,101450,25.7,25.4,0,4.17,46.1
35636,0,0,0,-43.529731,172.578979,0,A,1,0,0,138.7,11.3,-0.805,-0.257,-0.569,-6.9,-45.1,-42.4,101450,25,25.4,0,4.15,46.1
35676,0,0,0,-43.529731,172.578979,0,A,1,0,0,138.7,11.3,-0.815,-0.316,-0.436,-22.7,-12.6,-47.7,101450,25.5,25.6,0,4.15,47.5
35725,0,0,0,-43.529731,172.578979,0,A,1,0,0,138.7,11.3,-0.761,-0.386,-0.497,-3.2,5.7,-58.6,101450,25.5,25.5,0,4.14,75.4
35775,0,0,0,-43.529731,172.578979,0,A,1,0,0,138.7,11.3,-0.748,-0.306,-0.487,-37.2,-18.9,-35.8,101450,25.5,25.5,0,4.17,47.1
35825,0,0,0,-43.529731,172.578979,0,A,1,0,0,138.7,11.3,-0.697,-0.417,-0.498,-21.9,-77.9,-25.7,101450,25.5,25.7,0,4.17,44.7
35875,0,0,0,-43.529731,172.578979,0,A,1,0,0,138.7,11.3,-0.708,-0.343,-0.488,-79.7,-97,-9.1,101450,25.5,25.8,0,4.12,76.4
35925,0,0,0,-43.529731,172.578979,0,A,1,0,0,138.7,11.3,-0.859,-0.346,-0.501,-31.3,-47.6,14.1,101450,25.7,25.8,0,4.17,44.3
35975,0,0,0,-43.529731,172.578979,0,A,1,0,0,138.7,11.3,-0.865,-0.332,-0.395,-33.9,-84.1,-0.5,101450,25.5,25.7,0,4.15,47.1
36025,0,0,0,-43.529731,172.578979,0,A,1,0,0,138.7,11.3,-0.78,-0.357,-0.296,-43.2,-85.4,18.2,101450,25.5,25.6,0,4.17,45.2
36075,0,0,0,-43.529731,172.578979,0,A,1,0,0,138.7,11.3,-1.004,-0.384,-0.086,-33.4,-28.9,-0.9,101450,25.2,25.6,0,4.12,78.7
36125,0,0,0,-43.529731,172.578979,0,A,1,0,0,138.7,11.3,-1.209,-0.159,-0.299,1.8,-149.8,-46.4,101450,25,25.1,0,4.17,42.9
36175,0,0,0,-43.529731,172.578979,0,A,1,0,0,138.7,11.3,-1.137,-0.199,-0.076,-59.5,-180.4,-22.7,101450,25,25.5,0,4.15,46.1
36225,0,0,0,-43.529731,172.578979,0,A,1,0,0,138.7,11.3,-0.997,-0.396,-0.169,-57.4,-102.7,-69,101450,25.5,25.5,0,4.13,75.4
36275,0,0,0,-43.529731,172.578979,0,A,1,0,0,138.7,11.3,-0.682,-0.446,0.266,35.9,-100.5,-60.5,101451,25.2,25.4,0,4.17,46.6
36325,0,0,0,-43.529731,172.578979,0,A,1,0,0,138.7,11.3,-0.804,-0.454,0.074,-65.7,8.6,-48.7,101451,25.2,25.5,0,4.17,45.2
36375,0,0,0,-43.529731,172.578979,0,A,1,0,0,138.7,11.3,-0.662,-0.502,0.244,-29,21,-38.2,101451,25.2,25.5,0,4.13,70.3
36425,0,0,0,-43.529731,172.578979,0,A,1,0,0,138.7,11.3,-0.793,-0.499,-0.099,6.2,7.4,-42.5,101451,25,25.4,0,4.17,38.2
36475,0,0,0,-43.529731,172.578979,0,A,1,0,0,138.7,11.3,-0.828,-0.549,0.074,-11.8,-33.9,-51.1,101450,25,25.7,0,4.18,39.6
36525,0,0,0,-43.529731,172.578979,0,A,1,0,0,138.7,11.3,-1.031,-0.63,0.029,5.7,-17.3,-34.3,101450,25.5,25.7,0,4.18,38.7
36576,0,0,0,-43.529731,172.578979,0,A,1,0,0,138.7,11.3,-0.73,-0.65,0.201,5.7,-1.2,-30.9,101450,25.5,25.7,0,4.12,74
36636,0,0,0,-43.529731,172.578979,0,A,1,0,0,138.7,11.3,-0.7,-0.619,0.035,-6.6,-12,-36.1,101450,25.5,25.2,0,4.17,42.9
36675,0,0,0,-43.529731,172.578979,0,A,1,0,0,138.7,11.3,-0.563,-0.75,0.104,-29.6,-0.1,-66.3,101450,24.7,25.2,0,4.16,47.5
36725,0,0,0,-43.529731,172.578979,0,A,1,0,0,138.7,11.3,-0.624,-0.961,-0.035,-31.5,-20,-63.7,101450,25,25.6,0,4.14,73.6
36775,0,0,0,-43.529731,172.578979,0,A,1,0,0,138.7,11.3,-0.472,-0.644,0.168,-35.4,48.1,-85.9,101450,25,25.6,0,4.17,45.7
36825,0,0,0,-43.529731,172.578979,0,A,1,0,0,138.7,11.3,-0.355,-0.826,0.095,-33,47.5,-53.4,101450,25.5,25.6,0,4.17,43.8
36875,0,0,0,-43.529731,172.578979,0,A,1,0,0,138.7,11.3,-0.58,-0.681,0.005,-3.1,9.2,-49.8,101450,25.2,25.8,0,4.14,78.2
36925,0,0,0,-43.529731,172.578979,0,A,1,0,0,138.7,11.3,-0.464,-0.769,-0.006,-18.1,-21,-86,101450,25.2,25.4,0,4.17,43.3
36975,0,0,0,-43.529731,172.578979,0,A,1,0,0,138.7,11.3,-0.309,-0.848,0.009,-18.5,-9.5,-71.7,101449,25,25.4,0,4.17,46.1
37025,0,0,0,-43.529731,172.578979,0,A,1,0,0,138.7,11.3,-0.235,-0.929,-0.172,-80.5,-72.8,-97.7,101449,25,25.3,0,4.16,42.9
37075,0,0,0,-43.529731,172.578979,0,A,1,0,0,138.7,11.3,-0.404,-0.917,0.24,-24.9,30.5,-3.9,101449,25,25.5,0,4.14,75.4
37125,0,0,0,-43.529731,172.578979,0,A,1,0,0,138.7,11.3,-0.234,-0.862,0.01,33.2,31,1.6,101449,25.2,25.5,0,4.14,71.2
37175,0,0,0,-43.529731,172.578979,0,A,1,0,0,138.7,11.3,-0.429,-0.928,-0.126,-31.8,22.7,-0.5,101449,25,25.4,0,4.17,48.4
37225,0,0,0,-43.529731,172.578979,0,A,1,0,0,138.7,11.3,-0.301,-0.931,-0.121,3.2,42.4,-91.6,101450,25,25.7,0,4.14,74.5
37275,0,0,0,-43.529731,172.578979,0,A,1,0,0,138.7,11.3,0.123,-1.096,-0.284,9.5,29.1,-91.7,101450,25.2,25.7,0,4.17,47.1
37325,0,0,0,-43.529731,172.578979,0,A,1,0,0,138.7,11.3,-0.16,-0.843,-0.059,-5.4,17.2,-53.2,101450,25.2,25.6,0,4.17,39.1
37375,0,0,0,-43.529731,172.578979,0,A,1,0,0,138.7,11.3,-0.154,-0.915,-0.12,38.2,16.5,-101.5,101450,25.2,25.9,0,4.17,41
37425,0,0,0,-43.529731,172.578979,0,A,1,0,0,138.7,11.3,0.047,-0.971,0.015,48.2,19.6,-55.9,101450,25.5,25.9,0,4.17,38.7
37475,0,0,0,-43.529731,172.578979,0,A,1,0,0,138.7,11.3,-0.093,-1.208,-0.045,56,42.1,14.1,101451,25,25.3,0,4.17,40.5
37525,0,0,0,-43.529731,172.578979,0,A,1,0,0,138.7,11.3,-0.06,-0.873,0.485,-27.1,45.2,-10.7,101451,25,25.9,0,4.17,43.8
37586,0,0,0,-43.529731,172.578979,0,A,1,0,0,138.7,11.3,-0.021,-1.111,0.049,-10.4,-4.3,-3.4,101451,25.7,25.3,0,4.17,47.1
37627,0,0,0,-43.529731,172.578979,0,A,1,0,0,138.7,11.3,0.033,-0.888,-0.069,-10,19.6,-14,101451,24.7,25.3,0,4.16,43.8
37675,0,0,0,-43.529731,172.578979,0,A,1,0,0,138.7,11.3,-0.011,-1.058,0.058,-18.7,37.6,-19.9,101451,24.7,25.7,0,4.14,78.7
37725,0,0,0,-43.529731,172.578979,0,A,1,0,0,138.7,11.3,0.098,-1.053,-0.045,25,54.8,-8.2,101451,25.5,25.7,0,4.14,74
37775,0,0,0,-43.529731,172.578979,0,A,1,0,0,138.7,11.3,-0.014,-1.052,-0.011,87.6,116.8,3.3,101451,25,25.4,0,4.17,44.7
37825,0,0,0,-43.529731,172.578979,0,A,1,0,0,138.7,11.3,-0.024,-0.951,0.219,92,59.9,8.1,101451,25,25.4,0,4.16,43.8
37875,0,0,0,-43.529731,172.578979,0,A,1,0,0,138.7,11.3,0.099,-1.002,0.427,-23.2,52.3,-27,101451,25,25.4,0,4.16,46.6
37925,0,0,0,-43.529731,172.578979,0,A,1,0,0,138.7,11.3,0.042,-1.076,0.114,-52.9,66.8,7.3,101451,24.7,25.6,0,4.14,75.4
37975,0,0,0,-43.529731,172.578979,0,A,1,0,0,138.7,11.3,0.014,-0.863,-0.056,-0.4,41.8,27.3,101451,24.7,25.9,0,4.16,48
38025,0,0,0,-43.529731,172.578979,0,A,1,0,0,138.7,11.3,-0.026,-1.036,-0.03,-19.3,-0.7,22.3,101451,25.2,25.7,0,4.19,45.2
38075,0,0,0,-43.529731,172.578979,0,A,1,0,0,138.7,11.3,-0.059,-1.03,0.058,5.9,-21,18,101451,25,25.7,0,4.12,75
38125,0,0,0,-43.529731,172.578979,0,A,1,0,0,138.7,11.3,-0.079,-0.958,0.167,-10.6,-9.1,33.6,101451,25,25.4,0,4.17,44.7
38175,0,0,0,-43.529731,172.578979,0,A,1,0,0,138.7,11.3,-0.078,-1.027,-0.166,22.5,-16,26.3,101451,24.7,25.3,0,4.13,73.1
38225,0,0,0,-43.529731,172.578979,0,A,1,0,0,138.7,11.3,-0.093,-1.09,0.207,27.2,-23.5,16.3,101451,25,25.3,0,4.17,43.8
38275,0,0,0,-43.529731,172.578979,0,A,1,0,0,138.7,11.3,-0.067,-0.974,0.202,-13.5,-20.6,18.7,101451,25,25.6,0,4.17,41.5
38325,0,0,0,-43.529731,172.578979,0,A,1,0,0,138.7,11.3,-0.231,-1.103,-0.115,28.8,-47.2,14.7,101451,25.2,25.7,0,4.16,37.7
38375,0,0,0,-43.529731,172.578979,0,A,1,0,0,138.7,11.3,-0.121,-1.184,0.08,75.7,-124,35.2,101451,25.2,25.7,0,4.17,42.9
38425,0,0,0,-43.529731,172.578979,0,A,1,0,0,138.7,11.3,-0.093,-1.014,0.393,28.5,-26.5,58.9,101451,25.2,25.7,0,4.13,68.9
38475,0,0,0,-43.529731,172.578979,0,A,1,0,0,138.7,11.3,0.011,-0.99,0.147,48.5,-99.8,97.2,101451,25.7,25.7,0,4.17,41.5
38525,0,0,0,-43.529731,172.578979,0,A,1,0,0,138.7,11.3,-0.01,-0.814,0.266,92.6,-104.7,129.9,101451,25.5,25.7,0,4.16,45.2
38587,0,0,0,-43.529731,172.578979,0,A,1,0,0,138.7,11.3,-0.291,-0.63,0.37,17.7,-96.1,151.8,101451,25.2,25.7,0,4.14,49.4
38627,0,0,0,-43.529731,172.578979,0,A,1,0,0,138.7,11.3,-0.269,-0.768,0.245,-72.5,-71,137,101451,25.2,25.6,0,4.17,46.1
38676,0,0,0,-43.529731,172.578979,0,A,1,0,0,138.7,11.3,-0.419,-0.946,0.06,-60.8,-196.2,111.6,101451,25.2,25.6,0,4.15,48
38726,0,0,0,-43.529731,172.578979,0,A,1,0,0,138.7,11.3,-0.213,-0.607,0.558,84,-160.5,65.1,101451,25.2,25.7,0,4.17,46.6
38776,0,0,0,-43.529731,172.578979,0,A,1,0,0,138.7,11.3,-0.386,-0.489,0.698,75.1,-196,75.4,101451,25.5,25.1,0,4.15,48.9
38826,0,0,0,-43.529731,172.578979,0,A,1,0,0,138.7,11.3,-0.275,-0.614,1.102,34.3,-92.9,18.7,101451,24.5,25.1,0,4.16,45.7
38876,0,0,0,-43.529731,172.578979,0,A,1,0,0,138.7,11.3,-0.122,-0.487,0.857,69.7,-109.5,6.2,101451,24.5,25.7,0,4.16,48.9
38926,0,0,0,-43.529731,172.578979,0,A,1,0,0,138.7,11.3,-0.138,-0.506,0.941,32.6,-74.9,2.4,101451,25.2,25.5,0,4.14,76.8
38976,0,0,0,-43.529731,172.578979,0,A,1,0,0,138.7,11.3,-0.171,-0.61,0.846,16.6,-59,26.8,101452,25,25.5,0,4.17,47.1
39026,0,0,0,-43.529731,172.578979,0,A,1,0,0,138.7,11.3,-0.08,-0.417,1.156,-48.8,-10.8,26.2,101452,25,25.8,0,4.17,46.1
39076,0,0,0,-43.529731,172.578979,0,A,1,0,0,138.7,11.3,-0.089,-0.513,0.609,-57.7,-20.7,34.7,101452,25.5,25.4,0,4.12,77.7
39126,0,0,0,-43.529731,172.578979,0,A,1,0,0,138.7,11.3,-0.111,-0.487,0.889,-23.3,-96.2,22.1,101452,25,25.4,0,4.17,46.1
39176,0,0,0,-43.529731,172.578979,0,A,1,0,0,138.7,11.3,0.244,-0.474,1.091,-62,4.8,83,101451,25,25.7,0,4.17,47.5
39226,0,0,0,-43.529731,172.578979,0,A,1,0,0,138.7,11.3,-0.031,-0.832,0.506,-39.1,22.9,32.6,101451,25,25.7,0,4.13,70.8
39276,0,0,0,-43.529731,172.578979,0,A,1,0,0,138.7,11.3,-0.096,-0.634,0.728,46,67.2,42.3,101451,25.7,25.7,0,4.17,47.5
39326,0,0,0,-43.529731,172.578979,0,A,1,0,0,138.7,11.3,-0.242,-0.479,0.794,-30.4,31.3,105.4,101451,25,25.4,0,4.15,46.1
39376,0,0,0,-43.529731,172.578979,0,A,1,0,0,138.7,11.3,-0.381,-0.511,0.737,12.4,33.2,96.6,101451,25,25.9,0,4.16,41
39426,0,0,0,-43.529731,172.578979,0,A,1,0,0,138.7,11.3,-0.357,-0.519,0.594,19.9,48.7,112.7,101449,25.5,25.9,0,4.14,67.5
39476,0,0,0,-43.529731,172.578979,0,A,1,0,0,138.7,11.3,-0.223,-0.387,1.006,-89.7,-11.8,92.6,101449,25,25.4,0,4.17,40.5
39526,0,0,0,-43.529731,172.578979,0,A,1,0,0,138.7,11.3,-0.554,-0.595,0.649,-59.5,-27.4,88.7,101449,25,25.6,0,4.16,44.7
39587,0,0,0,-43.529731,172.578979,0,A,1,0,0,138.7,11.3,-0.42,-0.468,0.611,-42,5.8,76.8,101449,25.2,25.6,0,4.17,45.7
39627,0,0,0,-43.529731,172.578979,0,A,1,0,0,138.7,11.3,-0.826,-0.504,0.684,-75.9,30.2,150.5,101449,25,25.6,0,4.14,75.9
39676,0,0,0,-43.529731,172.578979,0,A,1,0,0,138.7,11.3,-0.796,-0.435,0.452,-33.1,7.6,68.4,101449,25,25.6,0,4.17,48.9
39726,0,0,0,-43.529731,172.578979,0,A,1,0,0,138.7,11.3,-0.611,-0.458,0.514,-14.1,-0.1,22.5,101449,25.2,25.6,0,4.18,45.7
39776,0,0,0,-43.529731,172.578979,0,A,1,0,0,138.7,11.3,-0.684,-0.786,0.726,-6.7,47,7.1,101449,24.7,25.4,0,4.14,77.3
39826,0,0,0,-43.529731,172.578979,0,A,1,0,0,138.7,11.3,-0.881,-0.517,0.42,23.1,100.4,10.1,101449,24.7,25.6,0,4.17,44.3
39876,0,0,0,-43.529731,172.578979,0,A,1,0,0,138.7,11.3,-0.754,-0.577,0.577,-55.9,68.4,39.5,101449,25,25.6,0,4.16,47.5
39926,0,0,0,-43.529731,172.578979,0,A,1,0,0,138.7,11.3,-0.479,-0.49,0.181,8.4,182.3,110.2,101450,25,25.6,0,4.12,74.5
39976,0,0,0,-43.529731,172.578979,0,A,1,0,0,138.7,11.3,-1.168,-0.137,0.554,-39.8,43.5,71.2,101450,25,25.6,0,4.17,48
40026,0,0,0,-43.529731,172.578979,0,A,1,0,0,138.7,11.3,-0.657,-0.575,0.015,48.4,97.7,130.9,101450,25,25.6,0,4.16,47.5
40076,0,0,0,-43.529731,172.578979,0,A,1,0,0,138.7,11.3,-0.847,-0.06,-0.053,11.2,52.8,143.8,101450,25.2,25.6,0,4.15,49.4
40126,0,0,0,-43.529731,172.578979,0,A,1,0,0,138.7,11.3,-1.012,-0.006,0.16,-4,109.8,93.3,101450,25.2,25.6,0,4.13,77.3
40176,0,0,0,-43.529731,172.578979,0,A,1,0,0,138.7,11.3,-1.047,0.113,0.063,-93.4,114.5,73.4,101450,25.5,25.6,0,4.15,48.4
40226,0,0,0,-43.529731,172.578979,0,A,1,0,0,138.7,11.3,-0.74,-0.215,-0.446,51.3,133.5,80.1,101450,25,25.7,0,4.15,46.1
40276,0,0,0,-43.529731,172.578979,0,A,1,0,0,138.7,11.3,-1.127,0.286,-0.072,73.5,101,66.5,101450,25,25.8,0,4.13,66.1
40326,0,0,0,-43.529731,172.578979,0,A,1,0,0,138.7,11.3,-0.901,0.102,-0.326,7.1,84.9,27,101450,25.2,25.8,0,4.17,39.1
40376,0,0,0,-43.529731,172.578979,0,A,1,0,0,138.7,11.3,-0.871,0.351,-0.318,36,94.7,32.1,101450,24.5,25.4,0,4.17,41.5
40426,0,0,0,-43.529731,172.578979,0,A,1,0,0,138.7,11.3,-1.007,0.19,-0.466,92.4,50.7,52.6,101450,24.5,25.8,0,4.17,37.3
40476,0,0,0,-43.529731,172.578979,0,A,1,0,0,138.7,11.3,-0.862,0.173,-0.422,75.4,-1.3,36.2,101450,25.5,25.8,0,4.17,40.5
40526,0,0,0,-43.529731,172.578979,0,A,1,0,0,138.7,11.3,-0.997,0.406,-0.369,11.2,-5.9,-58.5,101450,25,25.6,0,4.18,45.2
40587,0,0,0,-43.529731,172.578979,0,A,1,0,0,138.7,11.3,-1.005,0.057,-0.537,-46.5,27.9,-67.1,101450,25,25.7,0,4.15,48.4
40627,0,0,0,-43.529731,172.578979,0,A,1,0,0,138.7,11.3,-0.925,0.01,-0.632,78,6,-50.7,101450,25,25.7,0,4.13,77.7
40676,0,0,0,-43.529731,172.578979,0,A,1,0,0,138.7,11.3,-0.913,-0.069,-0.431,120,-12.8,35.6,101451,24.7,25.3,0,4.17,49.8
40726,0,0,0,-43.529731,172.578979,0,A,1,0,0,138.7,11.3,-0.952,0.265,-0.313,-8,-7.6,-51.5,101451,24.7,25.6,0,4.17,45.7
40776,0,0,0,-43.529731,172.578979,0,A,1,0,0,138.7,11.3,-0.952,-0.052,-0.516,-2.1,3.3,-48.6,101451,24.7,25.6,0,4.12,80.1
40826,0,0,0,-43.529731,172.578979,0,A,1,0,0,138.7,11.3,-0.79,0.141,-0.344,10.7,-6.3,-106.2,101451,24.5,25.2,0,4.14,76.4
40876,0,0,0,-43.529731,172.578979,0,A,1,0,0,138.7,11.3,-0.821,0.027,-0.452,-103.6,19.3,-94.7,101451,24.5,25.6,0,4.16,47.5
40926,0,0,0,-43.529731,172.578979,0,A,1,0,0,138.7,11.3,-0.944,-0.365,-0.41,13.1,-12.8,-18.1,101451,24.7,25.6,0,4.16,46.6
40976,0,0,0,-43.529731,172.578979,0,A,1,0,0,138.7,11.3,-0.695,-0.076,-0.435,12.4,12.9,-19.8,101451,25.2,25.7,0,4.13,78.2
41026,0,0,0,-43.529731,172.578979,0,A,1,0,0,138.7,11.3,-0.865,-0.253,-0.44,16.5,-4.3,-4.3,101451,25.2,25.9,0,4.17,47.1
41076,0,0,0,-43.529731,172.578979,0,A,1,0,0,138.7,11.3,-0.892,-0.262,-0.488,-34,5.6,-49.7,101451,25.2,25.4,0,4.17,48
41126,0,0,0,-43.529731,172.578979,0,A,1,0,0,138.7,11.3,-0.883,-0.231,-0.537,-18.6,0.8,3.1,101451,24.7,25.4,0,4.14,76.4
41176,0,0,0,-43.529731,172.578979,0,A,1,0,0,138.7,11.3,-0.706,-0.214,-0.521,16.3,-3.6,1.8,101451,24.7,25.4,0,4.16,50.3
41226,0,0,0,-43.529731,172.578979,0,A,1,0,0,138.7,11.3,-0.792,-0.22,-0.473,12.3,-5.4,6.6,101451,25,25.6,0,4.16,46.6
41276,0,0,0,-43.529731,172.578979,0,A,1,0,0,138.7,11.3,-0.963,-0.255,-0.52,36.6,-9.1,38.9,101451,25,25.6,0,4.13,72.2
41326,0,0,0,-43.529731,172.578979,0,A,1,0,0,138.7,11.3,-1.039,-0.154,-0.396,43.5,-26.5,5.6,101451,25,25.7,0,4.15,66.1
41376,0,0,0,-43.529731,172.578979,0,A,1,0,0,138.7,11.3,-0.886,-0.203,-0.382,20,-32.6,-43.2,101451,25.2,25.1,0,4.17,44.3
41426,0,0,0,-43.529731,172.578979,0,A,1,0,0,138.7,11.3,-0.766,-0.295,-0.426,-0.6,-22.1,-39.3,101452,24.7,25.1,0,4.17,39.6
41476,0,0,0,-43.529731,172.578979,0,A,1,0,0,138.7,11.3,-0.951,-0.339,-0.365,22.2,-28.5,30.1,101452,24.7,25.6,0,4.13,68.9
41526,0,0,0,-43.529731,172.578979,0,A,1,0,0,138.7,11.3,-0.873,-0.288,-0.24,29.5,-18.4,-14.8,101452,25,25.6,0,4.17,45.7
41587,0,0,0,-43.529731,172.578979,0,A,1,0,0,138.7,11.3,-0.857,-0.366,-0.35,27,-14,11.3,101452,25.2,25.6,0,4.15,50.8
41627,0,0,0,-43.529731,172.578979,0,A,1,0,0,138.7,11.3,-0.833,-0.31,-0.336,29.5,-5.8,35.7,101452,25.2,25.5,0,4.13,77.3
41676,0,0,0,-43.529731,172.578979,0,A,1,0,0,138.7,11.3,-0.992,-0.326,-0.347,20.7,-6.8,22.1,101452,24.7,25.6,0,4.16,49.8
41726,0,0,0,-43.529731,172.578979,0,A,1,0,0,138.7,11.3,-0.889,-0.31,-0.323,26.9,-11.6,36.3,101452,25,25.6,0,4.17,46.6
41776,0,0,0,-43.529731,172.578979,0,A,1,0,0,138.7,11.3,-1.021,-0.214,-0.256,29,-7.1,31.8,101452,25,25.6,0,4.15,49.4
41826,0,0,0,-43.529731,172.578979,0,A,1,0,0,138.7,11.3,-0.923,-0.242,-0.246,16.6,-6.2,27.6,101452,25.2,25.4,0,4.15,48
41876,0,0,0,-43.529731,172.578979,0,A,1,0,0,138.7,11.3,-0.978,-0.242,-0.174,16.3,-21.2,5.4,101452,25,25.4,0,4.14,76.8
41926,0,0,0,-43.529731,172.578979,0,A,1,0,0,138.7,11.3,-0.999,-0.136,-0.29,9.6,-36.2,-33.4,101452,25,25.4,0,4.17,47.1
41976,0,0,0,-43.529731,172.578979,0,A,1,0,0,138.7,11.3,-1.009,-0.32,-0.211,-7.5,-32.6,-28.2,101452,24.7,25.5,0,4.12,78.7
42026,0,0,0,-43.529731,172.578979,0,A,1,0,0,138.7,11.3,-1.144,-0.22,-0.156,-25.5,-76.6,-68.5,101452,24.7,25.5,0,4.18,48
42076,0,0,0,-43.529731,172.578979,0,A,1,0,0,138.7,11.3,-0.826,-0.365,-0.126,-35,-78.3,-51.9,101452,25,25.6,0,4.16,48.9
42126,0,0,0,-43.529731,172.578979,0,A,1,0,0,138.7,11.3,-0.956,-0.368,-0.066,3.8,-80.1,-52.2,101453,25,25.3,0,4.13,73.1
42176,0,0,0,-43.529731,172.578979,0,A,1,0,0,138.7,11.3,-0.768,-0.512,-0.006,-4.8,-39.5,-11,101453,24.7,25.3,0,4.17,49.8
42226,0,0,0,-43.529731,172.578979,0,A,1,0,0,138.7,11.3,-0.94,-0.575,-0.206,7.9,-72.3,2.7,101453,25,25.6,0,4.17,48.4
42276,0,0,0,-43.529731,172.578979,0,A,1,0,0,138.7,11.3,-0.898,-0.446,0.142,38.9,-70.4,-31.3,101453,25,25.5,0,4.17,41.5
42326,0,0,0,-43.529731,172.578979,0,A,1,0,0,138.7,11.3,-0.788,-0.476,0.131,12.3,-28.4,40.1,101453,25.2,25.5,0,4.17,40.1
42376,0,0,0,-43.529731,172.578979,0,A,1,0,0,138.7,11.3,-0.935,-0.338,0.157,-7.8,-60.8,-41.6,101453,24.5,25.2,0,4.14,68.4
42426,0,0,0,-43.529731,172.578979,0,A,1,0,0,138.7,11.3,-0.768,-0.339,0.297,56.8,-82.1,58.1,101453,24.5,25.4,0,4.18,39.1
42476,0,0,0,-43.529731,172.578979,0,A,1,0,0,138.7,11.3,-1.252,-0.313,0.071,44.2,30.9,34.6,101453,24.5,25.4,0,4.14,72.2
42526,0,0,0,-43.529731,172.578979,0,A,1,0,0,138.7,11.3,-0.844,-0.319,0.42,55.4,-77,-12.6,101453,24.5,25.1,0,4.16,45.2
42587,0,0,0,-43.529731,172.578979,0,A,1,0,0,138.7,11.3,-0.873,-0.345,0.414,-58.2,-76.2,-55.4,101453,24.5,25.6,0,4.17,48.4
42627,0,0,0,-43.529731,172.578979,0,A,1,0,0,138.7,11.3,-0.79,-0.518,0.273,-18.3,-24.9,-21.1,101452,24.7,25.6,0,4.12,75.4
42676,0,0,0,-43.529731,172.578979,0,A,1,0,0,138.7,11.3,-0.76,-0.455,0.408,14.3,-20.7,-13.5,101452,24.5,25.3,0,4.17,49.8
42726,0,0,0,-43.529731,172.578979,0,A,1,0,0,138.7,11.3,-0.681,-0.423,0.408,-6.8,-21,-35.7,101452,24.5,25.8,0,4.16,43.3
42776,0,0,0,-43.529731,172.578979,0,A,1,0,0,138.7,11.3,-0.887,-0.364,0.419,-6,-12.9,-31.6,101452,25.2,25.8,0,4.15,48.4
42826,0,0,0,-43.529731,172.578979,0,A,1,0,0,138.7,11.3,-0.748,-0.432,0.418,2.3,1,-1.1,101452,25,25.7,0,4.13,75
42876,0,0,0,-43.529731,172.578979,0,A,1,0,0,138.7,11.3,-0.718,-0.562,0.359,-11.8,5.4,15.8,101450,25,25.8,0,4.17,46.1
42926,0,0,0,-43.529731,172.578979,0,A,1,0,0,138.7,11.3,-0.883,-0.359,0.407,-18.2,-0.2,-25.5,101450,25,25.8,0,4.14,72.6
42976,0,0,0,-43.529731,172.578979,0,A,1,0,0,138.7,11.3,-0.751,-0.544,0.371,2.9,7.9,18,101450,25,25.2,0,4.13,76.4
43026,0,0,0,-43.529731,172.578979,0,A,1,0,0,138.7,11.3,-0.827,-0.476,0.383,-20.3,1.2,-14.9,101450,25,25.9,0,4.17,47.1
43076,0,0,0,-43.529731,172.578979,0,A,1,0,0,138.7,11.3,-0.792,-0.486,0.38,11.6,8.2,2.3,101450,24.7,25.9,0,4.17,48.4
43126,0,0,0,-43.529731,172.578979,0,A,1,0,0,138.7,11.3,-0.312,-1.931,-0.056,60.3,71.2,70.7,101449,25.7,25.6,0,4.17,42.9
43176,0,0,0,-43.529731,172.578979,0,A,1,0,0,138.7,11.3,-1.096,-0.143,0.64,12.3,-15.8,-47.9,101449,25.7,25.6,0,4.14,48.9
43226,0,0,0,-43.529731,172.578979,0,A,1,0,0,138.7,11.3,-0.825,0.276,0.381,-45.1,2,49.3,101449,2047.7,25.6,1,4.15,44.3
43276,0,0,0,-43.529731,172.578979,0,A,1,0,0,138.7,11.3,-0.841,-0.375,0.393,-36.7,-17,39.4,101449,2047.7,25.6,1,4.16,46.6
43326,0,0,0,-43.529731,172.578979,0,A,1,0,0,138.7,11.3,-0.635,-0.434,0.317,6.6,10.9,85.9,101449,2047.7,25.7,1,4.14,68
43376,0,0,0,-43.529731,172.578979,0,A,1,0,0,138.7,11.3,-0.771,-0.443,0.454,-10.7,15.2,58,101449,2047.7,25.7,1,4.18,41
43426,0,0,0,-43.529731,172.578979,0,A,1,0,0,138.7,11.3,-0.624,-0.475,0.182,-2.8,62.6,130.6,101449,2047.7,25.7,1,4.14,61.5
43476,0,0,0,-43.529731,172.578979,0,A,1,0,0,138.7,11.3,-0.99,-0.37,0.232,9.1,8.4,83.6,101449,2047.7,25.1,1,4.14,69.8
43527,0,0,0,-43.529731,172.578979,0,A,1,0,0,138.7,11.3,-1.106,0.305,0.403,36.3,34.7,170.6,101449,2047.7,25.1,1,4.17,47.1
43587,0,0,0,-43.529731,172.578979,0,A,1,0,0,138.7,11.3,-0.68,0.51,0.897,-100.5,6.6,252.9,101449,2047.7,25.8,1,4.15,46.6
43627,0,0,0,-43.529731,172.578979,0,A,1,0,0,138.7,11.3,-0.67,0.202,0.378,-199.8,28.4,371.9,101450,2047.7,26,1,4.16,43.8
43676,0,0,0,-43.529731,172.578979,0,A,1,0,0,138.7,11.3,-1.021,0.466,0.403,6,-48,311.8,101450,2047.7,26,1,4.13,43.8
43726,0,0,0,-43.529731,172.578979,0,A,1,0,0,138.7,11.3,-0.508,0.583,0.302,27.3,-46.9,245.5,101450,2047.7,25.3,1,4.18,45.2
43776,0,0,0,-43.529731,172.578979,0,A,1,0,0,138.7,11.3,-0.242,0.855,0.423,-31.8,-26.8,76.6,101450,2047.7,25.8,1,4.17,47.1
43826,0,0,0,-43.529731,172.578979,0,A,1,0,0,138.7,11.3,-0.599,0.887,0.356,64.9,18.5,109.9,101450,2047.7,25.8,1,4.13,72.6
43876,0,0,0,-43.529731,172.578979,0,A,1,0,0,138.7,11.3,-0.277,0.671,0.078,15.1,25.4,43.3,101450,2047.7,25.4,1,4.17,47.5
43926,0,0,0,-43.529731,172.578979,0,A,1,0,0,138.7,11.3,-0.599,0.906,0.234,49.3,25.4,17.1,101450,2047.7,25.9,1,4.16,42.9
43976,0,0,0,-43.529731,172.578979,0,A,1,0,0,138.7,11.3,-0.334,0.851,0.06,58.2,-11.5,98.8,101450,2047.7,25.9,1,4.13,74.5
44026,0,0,0,-43.529731,172.578979,0,A,1,0,0,138.7,11.3,-0.241,1.069,0.355,28,0.5,95,101450,2047.7,25.4,1,4.16,45.7
44076,0,0,0,-43.529731,172.578979,0,A,1,0,0,138.7,11.3,-0.263,1.016,0.21,-17,12.9,74.6,101450,2047.7,25.6,1,4.17,46.6
44126,0,0,0,-43.529731,172.578979,0,A,1,0,0,138.7,11.3,-0.162,0.881,0.115,-9.7,30.4,10.6,101450,2047.7,25.6,1,4.16,42.9
44176,0,0,0,-43.529731,172.578979,0,A,1,0,0,138.7,11.3,-0.244,1.045,0.248,37.6,9.9,30.5,101450,2047.7,25.9,1,4.12,75
44226,0,0,0,-43.529731,172.578979,0,A,1,0,0,138.7,11.3,-0.151,0.976,0.227,-0.2,-3.5,-19.9,101450,2047.7,25.7,1,4.15,43.8
44276,0,0,0,-43.529731,172.578979,0,A,1,0,0,138.7,11.3,0.13,1.021,0.28,-10.1,43.8,-10.4,101450,2047.7,25.7,1,4.17,39.1
44326,0,0,0,-43.529731,172.578979,0,A,1,0,0,138.7,11.3,-0.215,0.821,0.041,-7,43.3,19.5,101450,2047.7,26,1,4.14,65.7
44376,0,0,0,-43.529731,172.578979,0,A,1,0,0,138.7,11.3,-0.102,0.993,0.185,22.4,25.1,4.2,101450,2047.7,25.7,1,4.17,38.7
44426,0,0,0,-43.529731,172.578979,0,A,1,0,0,138.7,11.3,-0.013,1.048,0.194,46.2,33.8,43.8,101450,2047.7,25.7,1,4.17,36.8
44476,0,0,0,-43.529731,172.578979,0,A,1,0,0,138.7,11.3,-0.26,1.059,0.209,33.8,23.2,4.6,101450,2047.7,25.7,1,4.14,64.7
44527,0,0,0,-43.529731,172.578979,0,A,1,0,0,138.7,11.3,-0.088,0.957,0.035,37.4,-7,-9.9,101450,2047.7,25.4,1,4.17,44.7
44587,0,0,0,-43.529731,172.578979,0,A,1,0,0,138.7,11.3,-0.149,1.036,0.042,107.3,11.8,69.1,101449,2047.7,25.7,1,4.16,46.1
44627,0,0,0,-43.529731,172.578979,0,A,1,0,0,138.7,11.3,-0.223,1.013,-0.07,73,-20.5,15.3,101449,2047.7,25.7,1,4.17,42.9
44676,0,0,0,-43.529731,172.578979,0,A,1,0,0,138.7,11.3,0.167,1.016,-0.165,88.2,-49.1,10,101449,2047.7,25.7,1,4.13,75.4
44726,0,0,0,-43.529731,172.578979,0,A,1,0,0,138.7,11.3,-0.062,1.208,0.046,26.3,-0.1,9.3,101449,2047.7,25.9,1,4.17,43.3
44776,0,0,0,-43.529731,172.578979,0,A,1,0,0,138.7,11.3,-0.01,0.785,-0.192,-42,-1.8,-56,101449,2047.7,25.9,1,4.15,47.1
44826,0,0,0,-43.529731,172.578979,0,A,1,0,0,138.7,11.3,-0.15,1.053,-0.168,-1.4,-11.8,13,101448,2047.7,25.9,1,4.13,73.1
44876,0,0,0,-43.529731,172.578979,0,A,1,0,0,138.7,11.3,0.033,1.034,-0.148,13.3,23.6,34,101448,2047.7,25.7,1,4.16,46.6
44926,0,0,0,-43.529731,172.578979,0,A,1,0,0,138.7,11.3,-0.002,1.016,-0.147,35.5,26.3,60.4,101448,2047.7,25.7,1,4.16,43.3
44976,0,0,0,-43.529731,172.578979,0,A,1,0,0,138.7,11.3,-0.167,0.962,-0.133,-3.9,11.8,7.4,101448,2047.7,25.5,1,4.17,44.7
45026,0,0,0,-43.529731,172.578979,0,A,1,0,0,138.7,11.3,0.318,0.939,-0.155,-24.7,40.7,27.1,101448,2047.7,25.5,1,4.14,68.9
45076,0,0,0,-43.529731,172.578979,0,A,1,0,0,138.7,11.3,-0.144,1.029,-0.36,-4.7,8,-16.8,101448,2047.7,25.5,1,4.17,44.7
45126,0,0,0,-43.529731,172.578979,0,A,1,0,0,138.7,11.3,0.092,0.983,-0.125,-5.6,0.5,-47.7,101448,2047.7,25.6,1,4.17,41.9
45176,0,0,0,-43.529731,172.578979,0,A,1,0,0,138.7,11.3,-0.05,1.009,-0.269,-81,16.5,-54.7,101448,2047.7,25.3,1,4.13,73.6
45226,0,0,0,-43.529731,172.578979,0,A,1,0,0,138.7,11.3,-0.102,0.911,-0.214,-14.1,11.8,-27.4,101448,2047.7,25.3,1,4.17,37.3
45276,0,0,0,-43.529731,172.578979,0,A,1,0,0,138.7,11.3,0.069,0.892,-0.037,-12.9,-21,-29.7,101448,2047.7,25.7,1,4.2,38.2
45326,0,0,0,-43.529731,172.578979,0,A,1,0,0,138.7,11.3,-0.134,1.178,-0.095,15.2,-31,93,101449,2047.7,25.6,1,4.14,66.1
45376,0,0,0,-43.529731,172.578979,0,A,1,0,0,138.7,11.3,0.106,0.938,-0.169,25.7,-11.5,-4.1,101449,2047.7,25.6,1,4.17,39.6
45426,0,0,0,-43.529731,172.578979,0,A,1,0,0,138.7,11.3,-0.071,1.201,0.042,31.6,23.4,79.9,101449,2047.7,25.9,1,4.17,37.7
45476,0,0,0,-43.529731,172.578979,0,A,1,0,0,138.7,11.3,-0.271,0.923,-0.095,9.1,0.2,-46.6,101449,2047.7,25.6,1,4.17,44.7
45532,0,0,0,-43.529731,172.578979,0,A,1,0,0,138.7,11.3,-0.151,1.114,0.013,-38.5,33,4.7,101449,2047.7,25.6,1,4.17,42.4
45582,0,0,0,-43.529731,172.578979,0,A,1,0,0,138.7,11.3,0.29,0.499,-0.159,-30.6,8.4,-27.3,101450,2047.7,25.3,1,4.16,45.2
45626,0,0,0,-43.529731,172.578979,0,A,1,0,0,138.7,11.3,-0.208,1.464,0.414,-125.4,2.9,39.1,101450,2047.7,25.7,1,4.16,42.4
45676,0,0,0,-43.529731,172.578979,0,A,1,0,0,138.7,11.3,0.11,0.936,-0.046,-95,8.9,3,101450,2047.7,25.7,1,4.12,74
45726,0,0,0,-43.529731,172.578979,0,A,1,0,0,138.7,11.3,0.067,1.119,0.031,-79.8,-8.4,-3.2,101450,2047.7,25.4,1,4.17,41.9
45776,0,0,0,-43.529731,172.578979,0,A,1,0,0,138.7,11.3,0.012,1.119,0.233,-73.7,2.8,-2.8,101450,2047.7,25.5,1,4.15,41.9
45826,0,0,0,-43.529731,172.578979,0,A,1,0,0,138.7,11.3,0.035,0.68,0.173,-78.4,13,-26.3,101449,2047.7,25.5,1,4.17,34.5
45876,0,0,0,-43.529731,172.578979,0,A,1,0,0,138.7,11.3,0.113,1.059,0.28,-81.5,10.1,-40.9,101449,2047.7,25.7,1,4.13,68.4
45926,0,0,0,-43.529731,172.578979,0,A,1,0,0,138.7,11.3,-0.094,0.948,0.31,-41,10.1,-16.4,101449,2047.7,25.7,1,4.18,34.5
45976,0,0,0,-43.529731,172.578979,0,A,1,0,0,138.7,11.3,-0.263,0.85,0.518,-99.7,6.5,-38.8,101449,2047.7,25.7,1,4.18,36.4
46026,0,0,0,-43.529731,172.578979,0,A,1,0,0,138.7,11.3,0.02,1.183,0.804,-31.6,-21.3,13.1,101449,2047.7,25.7,1,4.14,67.5
46076,0,0,0,-43.529731,172.578979,0,A,1,0,0,138.7,11.3,-0.194,0.661,0.396,-52.6,-5.3,-0.7,101448,2047.7,25.6,1,4.14,64.7
46126,0,0,0,-43.529731,172.578979,0,A,1,0,0,138.7,11.3,-0.015,1.047,0.589,-28.8,-4.9,29.5,101448,2047.7,25.6,1,4.17,34.5
46176,0,0,0,-43.529731,172.578979,0,A,1,0,0,138.7,11.3,-0.183,0.797,0.584,-4.9,-7.6,45.9,101448,2047.7,25.7,1,4.14,68
46226,0,0,0,-43.529731,172.578979,0,A,1,0,0,138.7,11.3,-0.07,0.808,0.564,-7.5,-11.1,45.5,101448,2047.7,25.9,1,4.17,36.4
46276,0,0,0,-43.529731,172.578979,0,A,1,0,0,138.7,11.3,-0.008,0.989,0.69,26.6,-0.3,-7.3,101448,2047.7,25.9,1,4.17,38.7
46326,0,0,0,-43.529731,172.578979,0,A,1,0,0,138.7,11.3,0.04,0.917,0.572,19.1,-2.3,-0.7,101448,2047.7,25.8,1,4.17,37.7
46376,0,0,0,-43.529731,172.578979,0,A,1,0,0,138.7,11.3,-0.024,0.944,0.599,16.4,5,-10.1,101448,2047.7,25.7,1,4.17,41.9
46426,0,0,0,-43.529731,172.578979,0,A,1,0,0,138.7,11.3,0.006,0.925,0.687,11.5,-8.4,-4.8,101448,2047.7,25.7,1,4.17,39.6
46476,0,0,0,-43.529731,172.578979,0,A,1,0,0,138.7,11.3,0.094,0.858,0.415,22.3,-15.1,-5.7,101448,2047.7,25.9,1,4.17,46.1
46538,0,0,0,-43.529731,172.578979,0,A,1,0,0,138.7,11.3,0.036,0.889,0.523,-3.7,-10.6,4.6,101448,2047.7,25.7,1,4.17,38.2
46578,0,0,0,-43.529731,172.578979,0,A,1,0,0,138.7,11.3,0.032,0.853,0.45,18.7,-6.5,13.2,101448,2047.7,25.7,1,4.17,38.2
46627,0,0,0,-43.529731,172.578979,0,A,1,0,0,138.7,11.3,0.027,0.811,0.452,9.1,7.9,-8,101448,2047.7,26,1,4.14,66.6
46677,0,0,0,-43.529731,172.578979,0,A,1,0,0,138.7,11.3,-0.046,0.923,0.489,1.2,4.6,-3.8,101448,2047.7,25.9,1,4.17,38.7
46727,0,0,0,-43.529731,172.578979,0,A,1,0,0,138.7,11.3,-0.01,0.873,0.464,8.5,5.4,-3.5,101448,2047.7,25.9,1,4.17,38.2
46777,0,0,0,-43.529731,172.578979,0,A,1,0,0,138.7,11.3,-0.071,0.922,0.439,-4.3,3.5,-4.3,101448,2047.7,25.4,1,4.17,40.5
46827,0,0,0,-43.529731,172.578979,0,A,1,0,0,138.7,11.3,-0.056,0.88,0.477,-3,-7.7,2.9,101448,2047.7,25.9,1,4.17,37.3
46877,0,0,0,-43.529731,172.578979,0,A,1,0,0,138.7,11.3,0.027,0.871,0.438,24.2,6.6,-6.6,101448,2047.7,25.9,1,4.14,70.3
46927,0,0,0,-43.529731,172.578979,0,A,1,0,0,138.7,11.3,-0.051,0.941,0.441,-0.9,-1.6,-1.2,101448,2047.7,25.1,1,4.17,37.3
46977,0,0,0,-43.529731,172.578979,0,A,1,0,0,138.7,11.3,0.009,0.922,0.421,7,-1,-0.2,101448,2047.7,25.8,1,4.17,41
47027,0,0,0,-43.529731,172.578979,0,A,1,0,0,138.7,11.3,-0.04,0.923,0.432,-1.2,1.6,3.3,101448,2047.7,25.8,1,4.14,69.4
47077,0,0,0,-43.529731,172.578979,0,A,1,0,0,138.7,11.3,-0.014,0.933,0.354,17.6,-0.1,5.9,101448,2047.7,25.5,1,4.17,42.4
47127,0,0,0,-43.529731,172.578979,0,A,1,0,0,138.7,11.3,-0.034,0.914,0.42,8.7,-1.6,10.4,101448,2047.7,26,1,4.15,64.3
47177,0,0,0,-43.529731,172.578979,0,A,1,0,0,138.7,11.3,-0.004,0.948,0.434,10.9,-0.5,5,101448,2047.7,26,1,4.18,39.1
47227,0,0,0,-43.529731,172.578979,0,A,1,0,0,138.7,11.3,-0.013,0.9,0.359,4.8,-0.2,12.6,101448,2047.7,25.4,1,4.13,68
47277,0,0,0,-43.529731,172.578979,0,A,1,0,0,138.7,11.3,-0.038,0.931,0.404,2.2,1,-1.4,101448,2047.7,25.8,1,4.17,39.1
47327,0,0,0,-43.529731,172.578979,0,A,1,0,0,138.7,11.3,0.045,0.882,0.349,5.5,-3.9,0,101449,2047.7,25.8,1,4.17,37.3
47377,0,0,0,-43.529731,172.578979,0,A,1,0,0,138.7,11.3,0.029,0.952,0.359,1.4,-0.5,-1.5,101449,2047.7,25.9,1,4.14,68.4
47427,0,0,0,-43.529731,172.578979,0,A,1,0,0,138.7,11.3,0.018,0.885,0.402,-14.1,-4.8,3.4,101449,2047.7,25.4,1,4.17,36.4
47477,0,0,0,-43.529731,172.578979,0,A,1,0,0,138.7,11.3,0.05,0.898,0.43,0.8,-0.3,5.5,101449,2047.7,25.7,1,4.17,41.5
47538,0,0,0,-43.529731,172.578979,0,A,1,0,0,138.7,11.3,0.057,0.924,0.462,-4.9,3.8,1.6,101450,2047.7,25.7,1,4.17,36.4
47578,0,0,0,-43.529731,172.578979,0,A,1,0,0,138.7,11.3,0.033,0.898,0.41,-8.5,4.8,6.1,101450,2047.7,26.1,1,4.13,68.9
47627,0,0,0,-43.529731,172.578979,0,A,1,0,0,138.7,11.3,-0.078,0.892,0.351,7,2.3,-2.9,101450,2047.7,26,1,4.18,35
47677,0,0,0,-43.529731,172.578979,0,A,1,0,0,138.7,11.3,0,0.947,0.426,3.9,1.3,-2.8,101450,2047.7,26,1,4.14,68.4
47727,0,0,0,-43.529731,172.578979,0,A,1,0,0,138.7,11.3,0.028,0.913,0.336,3.1,1.9,5.2,101450,2047.7,25.4,1,4.14,68
47777,0,0,0,-43.529731,172.578979,0,A,1,0,0,138.7,11.3,-0.005,0.93,0.383,10.5,2.9,2.8,101449,2047.7,25.9,1,4.17,39.1
47827,0,0,0,-43.529731,172.578979,0,A,1,0,0,138.7,11.3,-0.007,0.947,0.398,5.9,2.7,-1.8,101449,2047.7,25.9,1,4.17,36.8
47877,0,0,0,-43.529731,172.578979,0,A,1,0,0,138.7,11.3,0.056,0.913,0.387,4.6,6.8,0.3,101449,2047.7,26,1,4.17,39.6
47927,0,0,0,-43.529731,172.578979,0,A,1,0,0,138.7,11.3,0.043,0.96,0.363,11.1,6.8,-5.1,101449,2047.7,25.4,1,4.17,38.7
47977,0,0,0,-43.529731,172.578979,0,A,1,0,0,138.7,11.3,-0.024,0.916,0.336,3.2,0.7,3.4,101449,2047.7,25.4,1,4.17,40.1
48027,0,0,0,-43.529731,172.578979,0,A,1,0,0,138.7,11.3,-0.044,0.936,0.357,6,4.2,-6.7,101449,2047.7,25.7,1,4.17,35.9
48077,0,0,0,-43.529731,172.578979,0,A,1,0,0,138.7,11.3,0.009,0.924,0.368,2.4,-1.3,0.8,101449,2047.7,25.7,1,4.14,70.8
48127,0,0,0,-43.529731,172.578979,0,A,1,0,0,138.7,11.3,-0.005,0.948,0.341,5.7,2,-1.1,101449,2047.7,25.7,1,4.18,35.9
48177,0,0,0,-43.529731,172.578979,0,A,1,0,0,138.7,11.3,-0.047,0.922,0.338,5.4,-3.6,1.5,101449,2047.7,25.7,1,4.14,65.2
48227,0,0,0,-43.529731,172.578979,0,A,1,0,0,138.7,11.3,-0.006,0.945,0.336,3.4,-0.1,-1.2,101449,2047.7,25.3,1,4.17,38.7
48277,0,0,0,-43.529731,172.578979,0,A,1,0,0,138.7,11.3,0.006,0.938,0.333,5.1,-1.5,-0.1,101448,2047.7,25.3,1,4.18,39.6
48327,0,0,0,-43.529731,172.578979,0,A,1,0,0,138.7,11.3,0.004,0.957,0.368,0,1.8,-0.5,101448,2047.7,25.4,1,4.17,36.8
48377,0,0,0,-43.529731,172.578979,0,A,1,0,0,138.7,11.3,-0.013,0.953,0.306,7.6,-0.7,-0.9,101448,2047.7,26,1,4.16,39.1
48427,0,0,0,-43.529731,172.578979,0,A,1,0,0,138.7,11.3,-0.029,0.965,0.354,-0.4,-2.6,-0.7,101448,2047.7,26,1,4.14,64.7
48477,0,0,0,-43.529731,172.578979,0,A,1,0,0,138.7,11.3,0.011,0.931,0.297,-0.5,-1.2,-0.2,101448,2047.7,25.3,1,4.17,43.3
48538,0,0,0,-43.529731,172.578979,0,A,1,0,0,138.7,11.3,-0.05,0.898,0.298,14.7,-4.8,-10.9,101447,2047.7,25.9,1,4.17,36.4
48578,0,0,0,-43.529731,172.578979,0,A,1,0,0,138.7,11.3,0.027,1.002,0.335,17.9,-1.2,-8.4,101447,2047.7,25.9,1,4.14,68
48627,0,0,0,-43.529731,172.578979,0,A,1,0,0,138.7,11.3,0.011,0.954,0.282,2.4,-2.8,2.2,101447,2047.7,25.5,1,4.17,34.5
48677,0,0,0,-43.529731,172.578979,0,A,1,0,0,138.7,11.3,-0.072,1.009,0.359,4,2.1,-10.4,101447,2047.7,25.9,1,4.17,39.1
48727,0,0,0,-43.529731,172.578979,0,A,1,0,0,138.7,11.3,0.038,0.934,0.274,-1.6,0.1,2.1,101447,2047.7,25.9,1,4.14,65.7
48777,0,0,0,-43.529731,172.578979,0,A,1,0,0,138.7,11.3,-0.017,0.978,0.31,6.7,0.5,-1.7,101446,2047.7,25.4,1,4.21,38.7
48827,0,0,0,-43.529731,172.578979,0,A,1,0,0,138.7,11.3,-0.003,0.974,0.315,-5.2,-1.2,2.1,101446,2047.7,25.7,1,4.17,37.7
48877,0,0,0,-43.529731,172.578979,0,A,1,0,0,138.7,11.3,-0.009,0.947,0.283,5.7,2.9,-1.8,101446,2047.7,25.7,1,4.16,42.9
48927,0,0,0,-43.529731,172.578979,0,A,1,0,0,138.7,11.3,-0.04,0.945,0.281,3.8,-1.8,1.4,101446,2047.7,25.7,1,4.13,70.3
48977,0,0,0,-43.529731,172.578979,0,A,1,0,0,138.7,11.3,0.005,1.008,0.298,7,-2.6,2,101446,2047.7,25.6,1,4.16,40.5
49027,0,0,0,-43.529731,172.578979,0,A,1,0,0,138.7,11.3,-0.058,0.944,0.277,4.7,-6.7,2.7,101447,2047.7,25.6,1,4.16,39.6
49077,0,0,0,-43.529731,172.578979,0,A,1,0,0,138.7,11.3,-0.021,1.006,0.25,4.3,-25.4,8,101447,2047.7,26.1,1,4.17,44.7
49127,0,0,0,-43.529731,172.578979,0,A,1,0,0,138.7,11.3,0.042,0.899,0.221,-9.6,-50.2,26.5,101447,2047.7,25.8,1,4.17,41
49177,0,0,0,-43.529731,172.578979,0,A,1,0,0,138.7,11.3,0.09,0.891,0.25,-46.6,-36.7,-7.1,101447,2047.7,25.9,1,4.17,43.3
49227,0,0,0,-43.529731,172.578979,0,A,1,0,0,138.7,11.3,-0.056,1.016,0.336,-19.5,-25.4,-18.2,101447,2047.7,25.9,1,4.14,65.7
49277,0,0,0,-43.529731,172.578979,0,A,1,0,0,138.7,11.3,0.131,0.8,-0.018,-9.9,-104.3,46.8,101448,2047.7,25.4,1,4.14,72.6
49327,0,0,0,-43.529731,172.578979,0,A,1,0,0,138.7,11.3,0.082,1.122,0.518,-3.1,-74.2,-46.1,101448,2047.7,25.7,1,4.17,40.5
49377,0,0,0,-43.529731,172.578979,0,A,1,0,0,138.7,11.3,0.185,0.794,0.286,7.1,-40.5,-2.4,101448,2047.7,25.7,1,4.17,41
49427,0,0,0,-43.529731,172.578979,0,A,1,0,0,138.7,11.3,0.096,1.027,0.365,4.1,-9.2,-13,101448,2047.7,25.7,1,4.13,69.4
49477,0,0,0,-43.529731,172.578979,0,A,1,0,0,138.7,11.3,0.017,0.973,0.295,-4.8,-4.6,-5.1,101448,2047.7,25.9,1,4.16,48
49538,0,0,0,-43.529731,172.578979,0,A,1,0,0,138.7,11.3,0.038,0.957,0.306,0.2,-5.2,0.2,101447,2047.7,25.9,1,4.17,39.6
49577,0,0,0,-43.529731,172.578979,0,A,1,0,0,138.7,11.3,0.031,0.966,0.293,5.8,-1.1,-3.9,101447,2047.7,25.7,1,4.17,43.3
49627,0,0,0,-43.529731,172.578979,0,A,1,0,0,138.7,11.3,0.045,0.967,0.277,0.7,2,-7.5,101447,2047.7,25.6,1,4.14,69.4
49677,0,0,0,-43.529731,172.578979,0,A,1,0,0,138.7,11.3,0.031,0.981,0.289,3.4,-1.1,1.2,101447,2047.7,25.6,1,4.17,40.5
49727,0,0,0,-43.529731,172.578979,0,A,1,0,0,138.7,11.3,0.043,0.94,0.27,1.3,3.7,-12,101447,2047.7,25.8,1,4.17,38.2
49777,0,0,0,-43.529731,172.578979,0,A,1,0,0,138.7,11.3,-0.008,0.973,0.256,0.8,3.4,-12.5,101447,2047.7,25.6,1,4.13,66.1
49827,0,0,0,-43.529731,172.578979,0,A,1,0,0,138.7,11.3,0.018,0.92,0.272,6,0.1,-3.8,101447,2047.7,25.6,1,4.17,38.2
49877,0,0,0,-43.529731,172.578979,0,A,1,0,0,138.7,11.3,0.017,0.984,0.286,3.7,0.9,-7.6,101447,2047.7,25.9,1,4.17,41.9
49927,0,0,0,-43.529731,172.578979,0,A,1,0,0,138.7,11.3,0.023,0.955,0.258,3.9,-1.5,-2.9,101447,2047.7,25.9,1,4.17,39.1
49977,0,0,0,-43.529731,172.578979,0,A,1,0,0,138.7,11.3,0.035,0.977,0.275,-4.1,-2.7,4.3,101447,2047.7,25.9,1,4.12,43.3
50027,0,0,0,-43.529731,172.578979,0,A,1,0,0,138.7,11.3,0.027,0.958,0.256,-1.7,-2.2,1.5,101448,2047.7,25.9,1,4.16,38.2
50077,0,0,0,-43.529731,172.578979,0,A,1,0,0,138.7,11.3,-0.013,0.936,0.211,4.9,-5.5,-13.4,101448,2047.7,25.9,1,4.18,42.9
50127,0,0,0,-43.529731,172.578979,0,A,1,0,0,138.7,11.3,0.037,0.967,0.281,8.1,-15,-13.5,101448,2047.7,25.9,1,4.14,67.1
50177,0,0,0,-43.529731,172.578979,0,A,1,0,0,138.7,11.3,-0.017,0.96,0.235,11.6,-15.1,-7.1,101448,2047.7,25.5,1,4.17,39.6
50227,0,0,0,-43.529731,172.578979,0,A,1,0,0,138.7,11.3,-0.037,0.965,0.22,26.5,-22.1,-26.7,101448,2047.7,25.8,1,4.17,40.5
50277,0,0,0,-43.529731,172.578979,0,A,1,0,0,138.7,11.3,0.003,0.983,0.219,18,-12.8,-22.1,101448,2047.7,25.8,1,4.17,41.5
50327,0,0,0,-43.529731,172.578979,0,A,1,0,0,138.7,11.3,-0.017,1.015,0.194,7.3,0.8,-21.3,101448,2047.7,25.8,1,4.14,68.4
50377,0,0,0,-43.529731,172.578979,0,A,1,0,0,138.7,11.3,-0.059,0.972,0.2,-4.9,-5,-28.3,101448,2047.7,25.9,1,4.17,41
50427,0,0,0,-43.529731,172.578979,0,A,1,0,0,138.7,11.3,-0.106,0.987,0.246,1.4,-15.1,-11.7,101448,2047.7,25.9,1,4.17,41
50477,0,0,0,-43.529731,172.578979,0,A,1,0,0,138.7,11.3,-0.147,1.043,0.259,-0.2,-13.5,-26.4,101448,2047.7,25.8,1,4.13,76.4
50538,0,0,0,-43.529731,172.578979,0,A,1,0,0,138.7,11.3,0.056,1.027,0.162,-62.7,-10,-30.1,101448,2047.7,25.7,1,4.17,38.7
50578,0,0,0,-43.529731,172.578979,0,A,1,0,0,138.7,11.3,-0.32,0.898,0.071,-24.2,-17.1,-15.9,101448,2047.7,25.7,1,4.15,41
50627,0,0,0,-43.529731,172.578979,0,A,1,0,0,138.7,11.3,-0.093,0.892,0.283,6.4,-2.7,-18.7,101448,2047.7,25.8,1,4.14,68.4
50677,0,0,0,-43.529731,172.578979,0,A,1,0,0,138.7,11.3,-0.111,0.957,0.267,-9.8,-7.9,-13,101448,2047.7,25.8,1,4.17,41
50727,0,0,0,-43.529731,172.578979,0,A,1,0,0,138.7,11.3,-0.264,1.048,0.326,-9.3,-15.6,-0.4,101447,2047.7,25.8,1,4.18,37.7
50777,0,0,0,-43.529731,172.578979,0,A,1,0,0,138.7,11.3,-0.07,0.859,0.306,-8.2,-10.7,35.4,101447,2047.7,25.9,1,4.17,41.9
50827,0,0,0,-43.529731,172.578979,0,A,1,0,0,138.7,11.3,-0.267,0.935,0.322,-14.9,-3.1,-0.9,101447,2047.7,25.7,1,4.14,63.8
50877,0,0,0,-43.529731,172.578979,0,A,1,0,0,138.7,11.3,0.031,0.922,0.295,5.1,-7.7,21.8,101447,2047.7,25.7,1,4.17,40.1
50927,0,0,0,-43.529731,172.578979,0,A,1,0,0,138.7,11.3,-0.149,0.947,0.291,1.3,-0.9,-1.2,101447,2047.7,25.7,1,4.17,39.1
50977,0,0,0,-43.529731,172.578979,0,A,1,0,0,138.7,11.3,-0.129,0.947,0.061,59.6,12,31.9,101448,2047.7,25.9,1,4.14,69.8
51027,0,0,0,-43.529731,172.578979,0,A,1,0,0,138.7,11.3,-0.316,1.429,0.472,24.3,12.5,50,101448,2047.7,25.9,1,4.17,35.9
51077,0,0,0,-43.529731,172.578979,0,A,1,0,0,138.7,11.3,0.053,1.109,0.237,18.6,15.9,36,101448,2047.7,25.9,1,4.16,41
51127,0,0,0,-43.529731,172.578979,0,A,1,0,0,138.7,11.3,-0.157,0.891,0.196,13,6.2,49.8,101448,2047.7,25.7,1,4.14,68
51177,0,0,0,-43.529731,172.578979,0,A,1,0,0,138.7,11.3,-0.054,0.991,0.155,41.3,11.2,-12.2,101448,2047.7,25.7,1,4.17,41
51227,0,0,0,-43.529731,172.578979,0,A,1,0,0,138.7,11.3,-0.162,0.926,0.067,60.9,-16,-21.5,101450,2047.7,25.8,1,4.17,39.1
51277,0,0,0,-43.529731,172.578979,0,A,1,0,0,138.7,11.3,-0.022,1.113,-0.002,76,-7.1,-46.3,101450,2047.7,25.6,1,4.17,39.6
51327,0,0,0,-43.529731,172.578979,0,A,1,0,0,138.7,11.3,-0.072,0.984,0.007,8.2,-25.9,14.3,101450,2047.7,25.6,1,4.17,38.7
51377,0,0,0,-43.529731,172.578979,0,A,1,0,0,138.7,11.3,-0.041,0.897,0.017,14,-38.2,-5.8,101450,2047.7,25.4,1,4.14,69.8
51427,0,0,0,-43.529731,172.578979,0,A,1,0,0,138.7,11.3,0.025,1.127,0.139,24.8,-35,18.9,101450,2047.7,25.8,1,4.17,39.1
51477,0,0,0,-43.529731,172.578979,0,A,1,0,0,138.7,11.3,0.018,0.94,0.115,-3.4,-44.5,10.3,101451,2047.7,25.8,1,4.14,69.4
51538,0,0,0,-43.529731,172.578979,0,A,1,0,0,138.7,11.3,-0.045,1.151,-0.041,13,-4.9,-7.1,101451,2047.7,25.6,1,4.18,38.2
51578,0,0,0,-43.529731,172.578979,0,A,1,0,0,138.7,11.3,0.091,1.321,0.078,-9.8,-5.5,-18.2,101451,2047.7,25.6,1,4.17,42.4
51627,0,0,0,-43.529731,172.578979,0,A,1,0,0,138.7,11.3,-0.086,0.999,0.029,-1.8,4.5,-1.6,101451,2047.7,26.1,1,4.17,39.6
51677,0,0,0,-43.529731,172.578979,0,A,1,0,0,138.7,11.3,-0.102,0.998,0.053,-0.7,2.1,-0.8,101451,2047.7,26.1,1,4.17,41.9
51727,0,0,0,-43.529731,172.578979,0,A,1,0,0,138.7,11.3,-0.125,1.001,0.034,-0.2,0.2,0.4,101451,2047.7,25.9,1,4.16,39.1
51777,0,0,0,-43.529731,172.578979,0,A,1,0,0,138.7,11.3,-0.034,0.996,0.027,0,-3.9,0.7,101451,2047.7,25.8,1,4.17,41.5
51827,0,0,0,-43.529731,172.578979,0,A,1,0,0,138.7,11.3,-0.023,0.984,-0.011,2.2,-2.9,0.4,101451,2047.7,25.8,1,4.13,69.4
51877,0,0,0,-43.529731,172.578979,0,A,1,0,0,138.7,11.3,-0.096,1.01,0.05,32.3,-24,-7.5,101451,2047.7,25.9,1,4.14,68.4
51927,0,0,0,-43.529731,172.578979,0,A,1,0,0,138.7,11.3,0.007,1.024,0.063,4.7,-12.8,-8,101451,2047.7,25.3,1,4.16,40.1
51977,0,0,0,-43.529731,172.578979,0,A,1,0,0,138.7,11.3,-0.078,1.152,-0.121,-10.2,-1.6,3.8,101449,2047.7,25.3,1,4.13,70.3
52027,0,0,0,-43.529731,172.578979,0,A,1,0,0,138.7,11.3,-0.106,1,-0.023,-6.5,2.1,1.8,101449,2047.7,25.6,1,4.17,39.6
52077,0,0,0,-43.529731,172.578979,0,A,1,0,0,138.7,11.3,-0.083,0.977,-0.013,-16.8,-3.2,0.1,101449,2047.7,25.8,1,4.17,41.9
52127,0,0,0,-43.529731,172.578979,0,A,1,0,0,138.7,11.3,-0.112,1.004,-0.013,-1.8,0.1,0.1,101449,2047.7,25.8,1,4.16,39.1
52177,0,0,0,-43.529731,172.578979,0,A,1,0,0,138.7,11.3,-0.06,0.995,-0.001,-0.9,-1.6,0.2,101449,2047.7,25.9,1,4.13,41
52227,0,0,0,-43.529731,172.578979,0,A,1,0,0,138.7,11.3,-0.054,1.013,0.001,-0.9,0.6,0.4,101448,2047.7,26.1,1,4.17,40.5
52277,0,0,0,-43.529731,172.578979,0,A,1,0,0,138.7,11.3,-0.076,0.999,0,-1.2,0.1,-0.1,101448,2047.7,26.1,1,4.17,41.9
52327,0,0,0,-43.529731,172.578979,0,A,1,0,0,138.7,11.3,-0.075,1,-0.003,-1,0.2,0.1,101448,2047.7,26.1,1,4.13,68
52377,0,0,0,-43.529731,172.578979,0,A,1,0,0,138.7,11.3,-0.061,0.998,-0.008,-0.8,0.5,-0.1,101448,2047.7,25.9,1,4.17,42.4
52427,0,0,0,-43.529731,172.578979,0,A,1,0,0,138.7,11.3,-0.07,0.996,-0.026,-0.9,0.9,-0.4,101448,2047.7,25.9,1,4.14,65.2
52478,0,0,0,-43.529731,172.578979,0,A,1,0,0,138.7,11.3,-0.053,1,0.004,-0.9,2.1,-0.7,101448,2047.7,25.2,1,4.18,43.8
52538,0,0,0,-43.529731,172.578979,0,A,1,0,0,138.7,11.3,-0.086,1.006,-0.015,-0.9,1.3,-0.9,101448,2047.7,25.7,1,4.17,39.6
52577,0,0,0,-43.529731,172.578979,0,A,1,0,0,138.7,11.3,-0.057,0.999,-0.005,-0.8,2.3,-1.2,101448,2047.7,25.7,1,4.17,42.9
52627,0,0,0,-43.529731,172.578979,0,A,1,0,0,138.7,11.3,-0.07,1.004,-0.01,-0.9,3.5,-1.7,101448,2047.7,25.8,1,4.17,39.6
52677,0,0,0,-43.529731,172.578979,0,A,1,0,0,138.7,11.3,-0.108,0.994,0,-0.4,0.7,-1.2,101448,2047.7,25.7,1,4.13,71.7
52727,0,0,0,-43.529731,172.578979,0,A,1,0,0,138.7,11.3,-0.11,0.998,-0.025,-0.7,-0.2,-0.4,101448,2047.7,25.7,1,4.16,38.7
52777,0,0,0,-43.529731,172.578979,0,A,1,0,0,138.7,11.3,-0.091,0.999,-0.012,-0.8,0.1,0,101448,2047.7,25.7,1,4.17,41
52827,0,0,0,-43.529731,172.578979,0,A,1,0,0,138.7,11.3,-0.106,1,-0.023,-0.9,-1.2,0.5,101448,2047.7,25.9,1,4.13,70.3
52877,0,0,0,-43.529731,172.578979,0,A,1,0,0,138.7,11.3,-0.088,0.998,0.003,-0.8,-0.4,0.7,101448,2047.7,25.9,1,4.17,41.9
52927,0,0,0,-43.529731,172.578979,0,A,1,0,0,138.7,11.3,-0.073,1.004,-0.02,-0.7,0.1,0.4,101447,2047.7,26.1,1,4.17,37.7
52977,0,0,0,-43.529731,172.578979,0,A,1,0,0,138.7,11.3,-0.056,1,0.002,-0.7,0.8,-0.4,101447,2047.7,25.7,1,4.13,72.2
53027,0,0,0,-43.529731,172.578979,0,A,1,0,0,138.7,11.3,-0.092,1,-0.018,-0.2,0.7,-0.5,101447,2047.7,25.7,1,4.14,67.5
53077,0,0,0,-43.529731,172.578979,0,A,1,0,0,138.7,11.3,-0.095,1.005,-0.031,-0.5,0.1,-0.7,101447,2047.7,25.4,1,4.15,42.4
53127,0,0,0,-43.529731,172.578979,0,A,1,0,0,138.7,11.3,-0.059,1.003,-0.029,-1.4,0.9,0.1,101447,2047.7,25.8,1,4.16,39.6
53177,0,0,0,-43.529731,172.578979,0,A,1,0,0,138.7,11.3,-0.075,0.998,-0.009,-1.6,0.2,-0.1,101446,2047.7,25.8,1,4.12,72.6
53227,0,0,0,-43.529731,172.578979,0,A,1,0,0,138.7,11.3,-0.111,0.998,0.019,-1.6,2,-0.4,101446,2047.7,25.2,1,4.17,40.1
53277,0,0,0,-43.529731,172.578979,0,A,1,0,0,138.7,11.3,-0.103,0.998,-0.003,0.4,0.5,-0.2,101446,2047.7,25.9,1,4.17,40.5
53327,0,0,0,-43.529731,172.578979,0,A,1,0,0,138.7,11.3,-0.088,0.998,-0.011,-0.2,-0.1,1.5,101446,2047.7,25.9,1,4.17,40.1
