timestamp,pdop,hdop,vdop,lati,longi,gps_speed,gps_mode,gps_fix_type,gps_fix_quality,gps_sats_tracked,gps_alt,gps_height,accel_x_g,accel_y_g,accel_z_g,gyro_x_dps,gyro_y_dps,gyro_z_dps,pressure_pa,tc_temp_C,cjc_temp_C,oc_sc_flags,batt_voltage_V,batt_current_mA,baro_calculated_altitude_m,pos_x,pos_y,pos_z,vel_x,vel_y,vel_z,roll_deg,pitch_deg,yaw_deg
0.0,0,0,0,-43.819213,172.65567,0.0,A,3,1,13,12.6,10.0,-0.076,0.997,-0.094,-1.3,-3.6,0.7,101443,27.0,28.6,0,4.15,44.7,-0.258101772141013,0.0,0.0,0.0,0.0,0.0,0.0,0.0,0.0,0.0
0.05000000000001137,0,0,0,-43.819213,172.65567,0.0,A,3,1,13,12.6,10.0,-0.068,0.996,-0.077,-1.2,-1.1,0.7,101443,27.0,28.9,0,4.1,75.9,-0.258101772141013,0.0,0.0,0.0,0.0,0.0,0.0,0.0,0.0,0.0
0.09999999999999432,0,0,0,-43.819213,172.65567,0.0,A,3,1,13,12.6,10.0,-0.065,0.994,-0.084,-0.9,3.1,0.6,101443,27.7,28.9,0,4.12,75.4,-0.258101772141013,0.0,0.0,0.0,0.0,0.0,0.0,0.0,0.0,0.0
0.16399999999998727,0,0,0,-43.819213,172.65567,0.0,A,3,1,13,12.6,10.0,-0.06,0.994,-0.092,0.0,1.8,0.9,101443,26.7,28.2,0,4.16,39.6,-0.258101772141013,0.0,0.0,0.0,0.0,0.0,0.0,0.0,0.0,0.0
0.20499999999998408,0,0,0,-43.819213,172.65567,0.0,A,3,1,13,12.6,10.0,-0.059,0.995,-0.105,-0.2,-1.6,0.5,101443,26.7,29.1,0,4.15,41.9,-0.258101772141013,0.0,0.0,0.0,0.0,0.0,0.0,0.0,0.0,0.0
0.2529999999999859,0,0,0,-43.819213,172.65567,0.0,A,3,1,13,12.6,10.0,-0.059,0.995,-0.098,-0.7,0.1,0.2,101440,27.7,29.1,0,4.15,43.3,0.0,0.0,0.0,0.0,0.0,0.0,0.0,0.0,0.0,0.0
0.30299999999999727,0,0,0,-43.819213,172.65567,0.0,A,3,1,13,12.6,10.0,-0.048,0.995,-0.109,-0.7,-1.3,0.1,101440,28.0,29.1,0,4.14,36.8,0.0,0.0,0.0,0.0,0.0,0.0,0.0,0.0,0.0,0.0
0.35300000000000864,0,0,0,-43.819213,172.65567,0.0,A,3,1,13,12.6,10.0,-0.085,0.996,-0.083,-0.5,-2.3,0.2,101440,28.0,28.8,0,4.14,37.7,0.0,0.0,0.0,0.0,0.0,0.0,0.0,0.0,0.0,0.0
0.4029999999999916,0,0,0,-43.819213,172.65567,0.0,A,3,1,13,12.6,10.0,-0.073,0.995,-0.08,-0.6,0.2,0.4,101440,27.5,28.8,0,4.14,41.0,0.0,8.395165243287727e-06,0.0005901848858316042,3.416869635035958e-05,0.0003358066097316236,0.023607395433272223,0.0013667478540148493,93.98701743458457,-31.313310948066846,82.36982818272904
0.45300000000000296,0,0,0,-43.819213,172.65567,0.0,A,3,1,13,12.6,10.0,-0.063,0.993,-0.096,-0.3,3.8,0.5,101440,27.7,28.9,0,4.11,72.6,0.0,6.127958840631329e-05,0.0016248734818123775,9.058011633665943e-05,0.0017795703167889176,0.017780148405949298,0.0008897089454366318,93.98497586303547,-31.290997813352064,82.36572683901157
0.5029999999999859,0,0,0,-43.819213,172.65567,0.0,A,3,1,13,12.6,10.0,-0.063,0.994,-0.108,-0.4,-0.7,0.5,101440,27.7,29.0,0,4.16,38.7,0.0,7.430223341595857e-05,0.0025055747577598605,0.00013002959713880177,-0.001258664516402929,0.017447902631962033,0.0006882702866495996,93.94918570497198,-31.09094510055055,82.36410026742472
0.5529999999999973,0,0,0,-43.819213,172.65567,0.0,A,3,1,13,12.6,10.0,-0.048,0.994,-0.109,-1.3,-4.0,0.3,101440,27.7,29.0,0,4.15,41.9,0.0,-8.111779960296226e-05,0.0034847887758461113,0.000167833657737008,-0.004958136804352491,0.0217206580914791,0.0008238921372783059,93.94834592327328,-31.113897518288166,82.34937202837484
0.6030000000000086,0,0,0,-43.819213,172.65567,0.0,A,3,1,13,12.6,10.0,-0.055,0.997,-0.095,-1.4,-2.7,0.1,101440,27.2,28.9,0,4.12,69.4,0.0,-0.00032761478531499055,0.004681621335434673,0.00022003746662086805,-0.004901742624126398,0.026152644292052465,0.0012642602180756215,93.98475853748552,-31.299052742178127,82.36034372042594
0.6529999999999916,0,0,0,-43.819213,172.65567,0.0,A,3,1,13,12.6,10.0,-0.079,0.995,-0.076,-0.9,-3.0,0.5,101440,27.2,28.7,0,4.15,38.7,0.0,-0.0005026854906586019,0.005841719131003196,0.0002921136881115761,-0.002101085589620443,0.02025126753070429,0.0016187886415536849,94.02267806166816,-31.418462865545393,82.37544852873637
0.703000000000003,0,0,0,-43.819213,172.65567,0.0,A,3,1,13,12.6,10.0,-0.073,0.995,-0.069,-0.4,2.8,0.6,101440,27.5,28.7,0,4.16,40.1,0.0,-0.0004655460944728143,0.006535699638585864,0.00036108489026295094,0.0035866614370516077,0.007507952772596102,0.0011400594445006799,94.0397176195102,-31.5553983607548,82.37638664728655
0.7529999999999859,0,0,0,-43.819213,172.65567,0.0,A,3,1,13,12.6,10.0,-0.051,0.994,-0.09,-0.2,7.3,0.7,101443,27.7,29.1,0,4.14,42.9,-0.258101772141013,-0.00012805705924846415,0.0067820375552008726,0.0003980117653087823,0.009912899971927002,0.0023455638920076285,0.000337015557333078,94.00583494938215,-31.40556013584916,82.37891842081899
0.8029999999999973,0,0,0,-43.819213,172.65567,0.0,A,3,1,13,12.6,10.0,-0.069,0.991,-0.119,-0.5,0.8,0.6,101443,27.7,28.7,0,4.11,39.6,-0.258101772141013,0.00027919106446728934,0.0069404574338523765,0.0003984099981758836,0.006377024976699433,0.003991231254051071,-0.00032108624264902993,93.9314137372333,-31.033365605887298,82.39233040343127
0.8530000000000086,0,0,0,-43.819213,172.65567,0.0,A,3,1,13,12.6,10.0,-0.076,0.992,-0.092,-0.6,-2.3,0.7,101443,27.2,28.7,0,4.14,47.1,-0.258101772141013,0.00042077275104444135,0.007047711498099814,0.00036389298880860443,-0.0007137575136146402,0.00029893131584544973,-0.0010595941320418233,93.91319076066672,-30.982639790177593,82.39155606806158
0.9029999999999916,0,0,0,-43.819213,172.65567,0.0,A,3,1,13,12.6,10.0,-0.059,0.997,-0.088,-0.5,1.9,0.5,101443,27.5,28.7,0,4.14,43.3,-0.258101772141013,0.00040508480796771254,0.006921822924224522,0.00030693608117218985,8.623979054527377e-05,-0.005334474270858853,-0.0012186821734155363,93.91313458903367,-31.08621144889661,82.38642298275985
0.953000000000003,0,0,0,-43.819213,172.65567,0.0,A,3,1,13,12.6,10.0,-0.043,0.996,-0.097,-0.6,0.7,0.4,101443,27.5,28.9,0,4.11,77.7,-0.258101772141013,0.0005106831949937885,0.0067006384754200125,0.0002575585399231777,0.004137695690496807,-0.0035129036813195255,-0.0007564194765445014,93.89218128789393,-30.980309478870357,82.38706311492388
1.002999999999986,0,0,0,-43.819213,172.65567,0.0,A,3,1,13,12.6,10.0,-0.055,0.995,-0.104,-0.7,-3.2,0.3,101438,27.7,28.6,0,4.15,43.3,0.1720712818972014,0.0007480286499261319,0.0066394283807748025,0.00022724270064697837,0.005356122506800165,0.001064499895510284,-0.0004562140945038847,93.88629272664325,-30.93321621331113,82.38493009381638
1.0529999999999973,0,0,0,-43.819213,172.65567,0.0,A,3,1,13,12.6,10.0,-0.067,0.994,-0.083,-0.9,-0.9,0.0,101438,27.2,28.6,0,4.14,48.9,0.1720712818972014,0.0010428523773493546,0.006638341555716036,0.00019996557427983593,0.006436826590126059,-0.0011079728978609068,-0.0006348709601815653,93.9163540177921,-31.07873710011569,82.36928263898548
1.1030000000000086,0,0,0,-43.819213,172.65567,0.0,A,3,1,13,12.6,10.0,-0.067,0.996,-0.089,-0.7,0.2,0.2,101438,27.2,28.6,0,4.11,71.2,0.1720712818972014,0.0014331997148110366,0.006423291008563153,0.00016519936018540523,0.009177066908337672,-0.007494048988252457,-0.0007557776035953468,93.94599673085699,-31.10827989846586,82.36381202001367
1.1670000000000016,0,0,0,-43.819213,172.65567,0.0,A,3,1,13,12.6,10.0,-0.076,0.996,-0.09,-0.3,1.8,0.6,101438,27.2,28.2,0,4.16,43.3,0.1720712818972014,0.0020305367256797215,0.005647639739450226,0.00014409377333243626,0.009489714681310782,-0.016745053171529176,9.622801443999387e-05,93.95819994037008,-31.07801775231956,82.35730248755148
1.2079999999999984,0,0,0,-43.819213,172.65567,0.0,A,3,1,13,12.6,10.0,-0.061,0.994,-0.104,-0.4,1.0,0.7,101438,26.7,28.2,0,4.14,40.5,0.1720712818972014,0.002384383414421228,0.004891713862799155,0.0001556093221855826,0.007771099403642104,-0.020129379835843005,0.0004655060759574323,93.93685471544903,-30.995795443374533,82.35177500064246
1.2560000000000002,0,0,0,-43.819213,172.65567,0.0,A,3,1,13,12.6,10.0,-0.056,0.993,-0.106,-0.7,1.8,0.5,101439,26.7,28.9,0,4.15,42.4,0.0860352975608124,0.0026902557058631565,0.003968921351513472,0.00017365596201488994,0.00497357940643776,-0.0183203081343923,0.00028643725026367833,93.91228907877834,-30.938233775846502,82.34985955308954
1.3060000000000116,0,0,0,-43.819213,172.65567,0.0,A,3,1,13,12.6,10.0,-0.052,0.994,-0.111,-1.0,-3.2,0.3,101439,27.5,28.6,0,4.11,68.4,0.0860352975608124,0.0028582271586119774,0.0031649638282777214,0.00018431797474137413,0.0017452787035135537,-0.013837992795030427,0.00014004325879559272,93.89207434428292,-30.837297331404812,82.36007490842961
1.3559999999999945,0,0,0,-43.819213,172.65567,0.0,A,3,1,13,12.6,10.0,-0.063,0.997,-0.081,-0.9,-2.8,0.2,101439,27.5,28.6,0,4.15,40.1,0.0860352975608124,0.0029745189744813027,0.002470632971287759,0.00019953846278952027,0.0029063939312610493,-0.013935241484577544,0.0004687762631304607,93.92215678705878,-30.982810412952304,82.35945974633069
1.406000000000006,0,0,0,-43.819213,172.65567,0.0,A,3,1,13,12.6,10.0,-0.068,0.996,-0.065,-0.8,-1.8,0.1,101439,27.5,29.0,0,4.14,35.4,0.0860352975608124,0.0033379337906913635,0.0015475890606841663,0.00022160243476397224,0.011630198717138069,-0.022986514939557764,0.00041378261584741784,93.95497223120557,-31.107834424395612,82.35237424301164
1.4559999999999889,0,0,0,-43.819213,172.65567,0.0,A,3,1,13,12.6,10.0,-0.066,0.993,-0.086,0.0,2.4,0.6,101439,27.7,28.9,0,4.14,42.9,0.0860352975608124,0.004099174081327785,0.00017780731546376783,0.00022070175118803282,0.018819412908329187,-0.03180475486927686,-0.0004498099588850065,93.98585520369191,-31.182633503405288,82.34123923783228
1.5060000000000002,0,0,0,-43.819213,172.65567,0.0,A,3,1,13,12.6,10.0,-0.065,0.991,-0.116,-0.4,4.6,0.4,101441,27.5,28.9,0,4.14,42.4,-0.0860346107954208,0.004963783173083037,-0.0014563957067390708,0.0001756170272425125,0.015764950761873,-0.03356336601882182,-0.001353578998935396,93.95507944829302,-31.052639662144518,82.32198201897093
1.5560000000000116,0,0,0,-43.819213,172.65567,0.0,A,3,1,13,12.6,10.0,-0.061,0.995,-0.126,-0.6,-1.7,0.7,101441,27.5,28.6,0,4.14,42.4,-0.0860346107954208,0.005488736469318392,-0.0030336441275641236,0.00011975679446839517,0.005233181087536417,-0.02952657081416595,-0.0008808303120287895,93.91876669105798,-30.812299730367844,82.32548576935702
1.6059999999999945,0,0,0,-43.819213,172.65567,0.0,A,3,1,13,12.6,10.0,-0.073,0.995,-0.095,-1.5,-4.0,0.4,101441,27.2,28.9,0,4.15,37.7,-0.0860346107954208,0.005575298723795199,-0.004522214097765178,0.000102114505111888,-0.0017706909084629335,-0.03001622799389655,0.0001751387377682621,93.91417985739074,-30.886140212428156,82.3226757642419
1.656000000000006,0,0,0,-43.819213,172.65567,0.0,A,3,1,13,12.6,10.0,-0.084,0.997,-0.08,-1.3,-4.0,0.7,101441,27.7,28.9,0,4.11,70.8,-0.0860346107954208,0.005476128374741935,-0.006297540937100785,0.00013007319743865462,-0.0021961230536667545,-0.0409968455795116,0.0009432089553021484,93.94480156976462,-31.071951396641172,82.34675194951726
1.7059999999999889,0,0,0,-43.819213,172.65567,0.0,A,3,1,13,12.6,10.0,-0.068,0.998,-0.057,-0.6,0.9,0.7,101441,27.7,28.3,0,4.16,37.3,-0.0860346107954208,0.005563417881955585,-0.00870992293092343,0.00019037767254357122,0.005687703342213945,-0.055498434173427126,0.0014689700488953379,93.9580199425128,-31.25976802742236,82.36974915908296
1.7560000000000002,0,0,0,-43.819213,172.65567,0.0,A,3,1,13,12.6,10.0,-0.047,0.995,-0.084,0.2,4.5,0.4,101442,27.0,28.7,0,4.14,42.9,-0.1720685348458202,0.006135999368687505,-0.011640656339162355,0.00025388890654290234,0.01721555612705763,-0.0617309021561032,0.0010714793110773292,93.93316310965002,-31.204755003677903,82.37747559648511
1.8060000000000116,0,0,0,-43.819213,172.65567,0.0,A,3,1,13,12.6,10.0,-0.05,0.992,-0.113,0.0,2.0,-0.1,101442,27.5,28.7,0,4.11,71.2,-0.1720685348458202,0.0070506398451644645,-0.014617425239037432,0.00028790893525291637,0.019370062932012454,-0.05733985383887277,0.0002893218373229211,93.89776462796686,-30.969348879701514,82.35059123839129
1.8559999999999945,0,0,0,-43.819213,172.65567,0.0,A,3,1,13,12.6,10.0,-0.066,0.992,-0.123,-0.5,-5.1,-0.1,101442,27.5,28.2,0,4.14,48.4,-0.1720685348458202,0.007816534334438439,-0.017356499422504466,0.0002948616869208396,0.01126571663895694,-0.05222311349984589,-1.1211770605897519e-05,93.91059111587114,-30.854505416794932,82.3088399697907
1.906000000000006,0,0,0,-43.819213,172.65567,0.0,A,3,1,13,12.6,10.0,-0.096,0.994,-0.092,-1.0,-3.5,0.2,101442,27.0,28.7,0,4.14,47.1,-0.1720685348458202,0.00814950657058775,-0.020143527170340406,0.00030300012112588416,0.002053172807012468,-0.059257996413566334,0.00033674913880760664,93.97889814296556,-31.09144080938025,82.26352474979008
1.9559999999999889,0,0,0,-43.819213,172.65567,0.0,A,3,1,13,12.6,10.0,-0.077,0.998,-0.083,-0.9,3.0,0.7,101442,27.7,28.7,0,4.15,44.3,-0.1720685348458202,0.008200766449977677,-0.02345814614986135,0.00034497218003865464,-2.7776314147124302e-06,-0.07332676276731676,0.0013421332177037844,94.01750771036049,-31.25109920412156,82.2583784487147
2.0060000000000002,0,0,0,-43.819213,172.65567,0.0,A,3,1,13,12.6,10.0,-0.062,0.997,-0.101,-0.9,2.1,1.3,101443,27.5,28.7,0,4.12,74.5,-0.258101772141013,0.008209753850935376,-0.02726837211001986,0.00044853872763795104,0.0003622736697226423,-0.07908227563898887,0.002800528686267128,93.97605750384345,-31.092076455065147,82.28967116749607
2.0560000000000116,0,0,0,-43.819213,172.65567,0.0,A,3,1,13,12.6,10.0,-0.054,0.993,-0.107,-1.0,-0.3,0.8,101443,27.5,28.7,0,4.14,47.5,-0.258101772141013,0.008176719673857661,-0.031177025544066532,0.0006006520037256995,-0.0016836407528309138,-0.07726386172284243,0.003284002357241426,93.90711796504141,-30.98163865507185,82.33505363585697
2.1069999999999993,0,0,0,-43.819213,172.65567,0.0,A,3,1,13,12.6,10.0,-0.049,0.995,-0.089,-0.8,-3.0,0.3,101443,27.2,28.7,0,4.15,40.5,-0.258101772141013,0.00813786523116831,-0.03504494976710206,0.0007556928662775171,0.00015993711795400743,-0.07441944114133256,0.0027960314683215144,93.8854104715584,-30.986869111241685,82.3613634218523
2.1699999999999875,0,0,0,-43.819213,172.65567,0.0,A,3,1,13,12.6,10.0,-0.066,0.994,-0.1,-0.5,-2.6,-0.1,101443,27.2,28.7,0,4.11,68.0,-0.258101772141013,0.008214351373369603,-0.03975406049646051,0.000922644493592026,0.002268194380500168,-0.07507613756848755,0.0025040201924575404,93.92143923684313,-31.157724919403645,82.34886408477324
2.210000000000008,0,0,0,-43.819213,172.65567,0.0,A,3,1,13,12.6,10.0,-0.079,0.994,-0.076,-0.6,-1.5,-0.1,101444,27.2,28.6,0,4.11,70.3,-0.3441343227217392,0.008314788214132838,-0.04288897441819777,0.0010171336686370567,0.002753647657659035,-0.08166955851829527,0.0022204385597915806,93.96043517045089,-31.24820666769004,82.32053176867608
2.258999999999986,0,0,0,-43.819213,172.65567,0.0,A,3,1,13,12.6,10.0,-0.091,0.994,-0.112,-0.4,1.5,0.5,101444,27.5,28.6,0,4.17,41.9,-0.3441343227217392,0.008331610415198818,-0.04717188123972495,0.0011331496767634118,-0.002067027205986087,-0.09314296480942258,0.002514908710674,93.99986213887975,-31.3056126368192,82.29500347632789
2.3089999999999975,0,0,0,-43.819213,172.65567,0.0,A,3,1,13,12.6,10.0,-0.085,0.992,-0.101,-0.9,2.0,1.2,101444,27.7,28.7,0,4.16,39.6,-0.3441343227217392,0.007958106273415849,-0.052072573079468464,0.001271447594657631,-0.01287313846532931,-0.1028847087802735,0.0030170080050935144,93.98179160477528,-31.219559746429503,82.28921933760061
2.359000000000009,0,0,0,-43.819213,172.65567,0.0,A,3,1,13,12.6,10.0,-0.055,0.995,-0.113,-1.4,0.7,1.2,101444,27.7,28.3,0,4.15,43.3,-0.3441343227217392,0.007152320896638437,-0.057275909709366,0.0014284431994424696,-0.0193582766057598,-0.10524875641558071,0.003262816186298602,93.91932599905475,-31.113410064201705,82.33138492009861
2.408999999999992,0,0,0,-43.819213,172.65567,0.0,A,3,1,13,12.6,10.0,-0.036,0.997,-0.081,-1.5,-2.8,0.6,101444,27.2,28.3,0,4.15,36.8,-0.3441343227217392,0.006276763610062164,-0.062411279388966685,0.0015985928277677237,-0.01566401485730307,-0.10016603076851653,0.003543168946713887,93.86710997597875,-31.071635244366956,82.39318835844472
2.459000000000003,0,0,0,-43.819213,172.65567,0.0,A,3,1,13,12.6,10.0,-0.045,0.997,-0.081,-0.7,-2.6,0.2,101441,27.7,28.9,0,4.14,40.1,-0.0860346107954208,0.0057759742221033285,-0.0673415636567486,0.0017723033054699857,-0.004367560661045827,-0.09704533994271496,0.003405250161375014,93.8766558188797,-31.19932748578848,82.42809050217497
2.508999999999986,0,0,0,-43.819213,172.65567,0.0,A,3,1,13,12.6,10.0,-0.057,0.996,-0.083,-0.7,-2.5,-0.4,101441,27.7,28.7,0,4.11,71.7,-0.0860346107954208,0.005758852855302182,-0.07221437762666104,0.0019417385499007898,0.0036827059889997012,-0.09786721885384918,0.0033721596158594568,93.90783810302136,-31.314470221711545,82.41174870407887
2.5589999999999975,0,0,0,-43.819213,172.65567,0.0,A,3,1,13,12.6,10.0,-0.082,0.989,-0.092,-0.4,-0.3,0.0,101441,27.5,28.7,0,4.15,43.8,-0.0860346107954208,0.005966508773268241,-0.07727893474141519,0.002080631518296784,0.004623530729640778,-0.10471506573627064,0.002183559119979043,93.97316753795619,-31.420674732091584,82.37758094207224
2.609000000000009,0,0,0,-43.819213,172.65567,0.0,A,3,1,13,12.6,10.0,-0.086,0.992,-0.107,-0.4,0.1,0.4,101441,27.5,28.7,0,4.14,38.7,-0.0860346107954208,0.006006185253207663,-0.08275396529686821,0.0021605211475805874,-0.0030364715320642492,-0.11428615648180061,0.001012026051372376,93.99824331025972,-31.420482234712395,82.34934649187393
2.658999999999992,0,0,0,-43.819213,172.65567,0.0,A,3,1,13,12.6,10.0,-0.07,0.995,-0.113,-0.8,1.8,0.7,101441,27.5,28.7,0,4.11,73.1,-0.0860346107954208,0.00560053299779651,-0.08857728418018673,0.0022265244406563384,-0.013189618684387382,-0.11864659885101995,0.0016281056716585685,93.99696834666678,-31.403125290942413,82.3348489396915
2.709000000000003,0,0,0,-43.819213,172.65567,0.0,A,3,1,13,12.6,10.0,-0.058,0.997,-0.111,-1.3,-1.3,0.7,101442,27.5,28.7,0,4.12,64.3,-0.1720685348458202,0.004759565287157069,-0.09446298329532313,0.0023459697662625034,-0.02044908974118262,-0.11678136575438205,0.0031497073525869456,93.96502923250682,-31.303523667843443,82.35630527362241
2.758999999999986,0,0,0,-43.819213,172.65567,0.0,A,3,1,13,12.6,10.0,-0.062,0.995,-0.081,-1.3,-3.7,0.9,101442,27.0,27.9,0,4.14,40.1,-0.1720685348458202,0.003742437334344072,-0.10031763495844143,0.002519584924898189,-0.020236028371351154,-0.11740470077042993,0.0037948989928428406,93.95723740733453,-31.35753767413666,82.39019477782698
2.8089999999999975,0,0,0,-43.819213,172.65567,0.0,A,3,1,13,12.6,10.0,-0.041,0.995,-0.082,-1.2,-1.9,0.1,101442,27.0,29.0,0,4.15,39.1,-0.1720685348458202,0.002931896320545196,-0.10620545440269884,0.002690011452494027,-0.012185612180596519,-0.1181080769998129,0.0030221621109891342,93.95637180565737,-31.531816793378898,82.4204842956953
2.859000000000009,0,0,0,-43.819213,172.65567,0.0,A,3,1,13,12.6,10.0,-0.055,0.994,-0.084,-1.0,-0.1,-0.4,101442,27.7,29.0,0,4.1,51.7,-0.1720685348458202,0.002524491858241061,-0.1120771519909872,0.002815038707792817,-0.004110566311565186,-0.11675982653166798,0.0019789281009613253,93.98804960398765,-31.611608052906405,82.42873684911714
2.908999999999992,0,0,0,-43.819213,172.65567,0.0,A,3,1,13,12.6,10.0,-0.06,0.993,-0.103,-0.9,-4.1,-0.3,101442,27.2,28.4,0,4.14,48.4,-0.1720685348458202,0.0023494683307792165,-0.11790435834976505,0.0028948742332372216,-0.0028903747869109724,-0.11632842781952576,0.0012144929168159463,94.03490519510171,-31.598888547537555,82.41901947826946
2.959000000000003,0,0,0,-43.819213,172.65567,0.0,A,3,1,13,12.6,10.0,-0.071,0.996,-0.094,-1.1,-2.3,-0.4,101443,27.2,28.6,0,4.15,48.9,-0.258101772141013,0.002135625118961676,-0.12375026475548881,0.002960432523288948,-0.005663353685788703,-0.11750782840937138,0.001407838685252516,94.10704131178707,-31.78506199456097,82.39096049181504
3.008999999999986,0,0,0,-43.819213,172.65567,0.0,A,3,1,13,12.6,10.0,-0.089,0.993,-0.09,-1.4,1.4,-0.1,101443,27.5,28.6,0,4.11,72.2,-0.258101772141013,0.001758123250919748,-0.12983564216328827,0.0030390766702763725,-0.009436721035893561,-0.1259072679026899,0.001737927194245546,94.17116155639283,-31.881344311235008,82.37697832325283
3.0589999999999975,0,0,0,-43.819213,172.65567,0.0,A,3,1,13,12.6,10.0,-0.084,0.995,-0.094,-1.3,-3.4,0.5,101443,27.5,28.6,0,4.15,45.2,-0.258101772141013,0.001148142514088972,-0.1363991205881834,0.0031331533848743993,-0.014962508437331937,-0.13663186909305614,0.0020251413896746643,94.1889334609104,-31.796248162884787,82.402441041439
3.115000000000009,0,0,0,-43.819213,172.65567,0.0,A,3,1,13,12.6,10.0,-0.07,0.993,-0.076,-1.0,-1.5,1.0,101443,27.5,28.7,0,4.15,36.4,-0.258101772141013,0.0002983050848514232,-0.14431175816201575,0.003236609863227564,-0.015388828321145659,-0.1459623299723257,0.0016697328372233108,94.21146497780083,-31.971830313878762,82.42395834808264
3.1680000000000064,0,0,0,-43.81921,172.65567,0.0,A,3,1,13,12.6,10.0,-0.06,0.995,-0.07,-0.8,5.9,0.4,101443,27.5,28.9,0,4.14,42.4,-0.258101772141013,-0.0003092687114800585,-0.15222708248490863,0.0032906238355722285,-0.00753848474796804,-0.1527291539104398,0.000368530270122615,94.18612599352556,-32.0416771825947,82.4531167319699
3.209000000000003,0,0,0,-43.81921,172.65567,0.0,A,3,1,13,12.6,10.0,-0.071,0.994,-0.08,-0.1,0.7,0.6,101444,27.7,28.9,0,4.11,69.8,-0.3441343227217392,-0.0005115297899619001,-0.15859341206295763,0.0032909598325761404,-0.0023279093243176816,-0.15782350843343745,-0.0003521401723708146,94.14837414791332,-31.79169637227752,82.47704275913829
3.258999999999986,0,0,0,-43.81921,172.65567,0.0,A,3,1,13,12.6,10.0,-0.072,0.996,-0.077,0.5,-3.9,0.9,101444,27.7,28.6,0,4.12,70.3,-0.3441343227217392,-0.0005408864080222435,-0.16668463543417267,0.003265879769244472,0.001153644601903545,-0.16582542641527404,-0.0006510623608962537,94.1308517083014,-31.745907098393825,82.45610615660397
3.3089999999999975,0,0,0,-43.81921,172.65567,0.0,A,3,1,13,12.6,10.0,-0.072,0.996,-0.079,0.4,1.7,0.9,101444,27.5,28.6,0,4.16,35.4,-0.3441343227217392,-0.00038680970805030014,-0.1751908800208193,0.003237693330562993,0.005009423396972785,-0.17442435705051387,-0.0004763951863626536,94.13146047392527,-31.93009864959926,82.39562298127362
3.359000000000009,0,0,0,-43.81921,172.65567,0.0,A,3,1,13,12.6,10.0,-0.076,0.991,-0.11,0.4,4.0,1.3,101444,27.5,28.5,0,4.12,68.9,-0.3441343227217392,-0.0002191003207553967,-0.18405033779313337,0.0032082956227216693,0.0016989520948218267,-0.1799539538419684,-0.0006995131272900353,94.0885161954741,-31.83676292603525,82.36314380776629
3.408999999999992,0,0,0,-43.81921,172.65567,0.0,A,3,1,13,12.6,10.0,-0.055,0.994,-0.112,0.4,11.2,1.5,101444,27.5,28.9,0,4.15,37.7,-0.3441343227217392,-0.0003275559956174295,-0.19300681519876914,0.0031685305746954047,-0.006037179089304618,-0.17830514238358433,-0.0008910887937610921,94.00431088125548,-31.632122431009037,82.35227240837169
3.459000000000003,0,0,0,-43.81921,172.65567,0.0,A,3,1,13,12.6,10.0,-0.066,0.996,-0.143,-1.3,-0.5,0.8,101442,27.5,28.9,0,4.14,41.5,-0.1720685348458202,-0.0009543115550118353,-0.20174961982615486,0.0031658388607036145,-0.01903304328646592,-0.17140704271176474,0.0007834202340895126,93.85285744594208,-31.071999215462725,82.37591185123951
3.508999999999986,0,0,0,-43.81921,172.65567,0.0,A,3,1,13,12.6,10.0,-0.02,0.996,-0.092,-2.0,-7.3,0.2,101442,27.5,28.7,0,4.14,38.7,-0.1720685348458202,-0.0020170974047736554,-0.2100433409841707,0.00323496163510114,-0.023478390704021378,-0.16034180360898295,0.0019814907418124407,93.83309437123752,-31.087023975929256,82.41595204076107
3.5589999999999975,0,0,0,-43.81921,172.65567,0.0,A,3,1,13,12.6,10.0,-0.077,0.995,-0.068,-1.3,-2.4,-0.1,101442,27.5,28.4,0,4.14,42.4,-0.1720685348458202,-0.0029575945302990863,-0.21807173213608422,0.003317145325427471,-0.014141494316987304,-0.16079384246748438,0.001305856871240053,93.90046419453158,-31.435123115937788,82.44582903131433
3.609000000000009,0,0,0,-43.81921,172.65567,0.0,A,3,1,13,12.6,10.0,-0.087,0.992,-0.077,-1.2,0.6,-0.9,101442,27.2,28.4,0,4.15,39.6,-0.1720685348458202,-0.0035761425635495933,-0.226507236014588,0.0033562394715689324,-0.01060042701302735,-0.17662631267259024,0.0002579089744180487,93.94755187816088,-31.538394577621382,82.45107300688797
3.658999999999992,0,0,0,-43.81921,172.65567,0.0,A,3,1,13,12.6,10.0,-0.06,1.0,-0.06,-1.2,0.7,-0.7,101442,27.7,28.9,0,4.14,41.9,-0.1720685348458202,-0.003918267870456052,-0.2356593742368822,0.003362866379359688,-0.003084585263235685,-0.18945921621930284,7.16733721226959e-06,94.01803917685376,-31.48770674502052,82.43906775383701
3.709000000000003,0,0,0,-43.81921,172.65567,0.0,A,3,1,13,12.6,10.0,-0.102,0.993,-0.084,-0.7,1.7,0.1,101436,27.7,28.9,0,4.11,68.4,0.3441453109527267,-0.003965416216760879,-0.2454961213310543,0.0033730971494940493,0.0011986514110430653,-0.20401066754749156,0.0004020634681620773,94.07608497818805,-31.43336953828372,82.43361094990483
3.758999999999986,0,0,0,-43.81921,172.65567,0.0,A,3,1,13,12.6,10.0,-0.096,0.991,-0.098,-0.5,-2.2,0.8,101436,27.7,28.9,0,4.15,39.6,0.3441453109527267,-0.004114412067474581,-0.2561199076934007,0.0033837820528962973,-0.00715848543959319,-0.2209407869465103,2.533266792799062e-05,94.07991908126397,-31.334732281282704,82.43145221081377
3.8089999999999975,0,0,0,-43.81921,172.65567,0.0,A,3,1,13,12.6,10.0,-0.064,0.995,-0.097,-0.7,0.8,0.8,101436,27.7,29.1,0,4.11,68.4,0.3441453109527267,-0.004625019697147242,-0.26735091829735746,0.003381224067736226,-0.013265819747308616,-0.22829963721165739,-0.00012765207433082127,94.07320224522898,-31.434006333929176,82.42478813947768
3.859000000000009,0,0,0,-43.81921,172.65567,0.0,A,3,1,13,12.6,10.0,-0.062,0.995,-0.072,-0.2,-4.6,1.2,101436,27.7,28.9,0,4.11,78.7,0.3441453109527267,-0.005196177582082665,-0.2788592268199565,0.0033675988815205084,-0.009580495650103084,-0.23203270369219953,-0.0004173553742977574,94.04332897388983,-31.384586419481277,82.44019449547746
3.908999999999992,0,0,0,-43.81921,172.65567,0.0,A,3,1,13,12.6,10.0,-0.068,0.998,-0.079,0.3,-1.0,1.2,101436,27.7,28.9,0,4.15,43.8,0.3441453109527267,-0.005501703288137172,-0.29063776566433985,0.0033487293304649965,-0.0026405325920813858,-0.23910885008329394,-0.0003374266679229747,94.03188643674918,-31.605448833935135,82.42101032303651
3.959000000000003,0,0,0,-43.81921,172.65567,0.0,A,3,1,13,12.6,10.0,0.008,1.001,-0.138,1.3,10.1,1.6,101441,28.0,29.0,0,4.14,48.9,-0.0860346107954208,-0.005570251599209778,-0.302200836687928,0.0033835864717239148,-0.00010139985082221288,-0.22341399086012712,0.0017317123182793862,93.99260238773874,-31.647894267696348,82.39144814475722
4.008999999999986,0,0,0,-43.81921,172.65567,0.0,A,3,1,13,12.6,10.0,-0.025,0.995,-0.137,-0.8,9.8,-0.1,101441,28.0,28.9,0,4.14,45.7,-0.0860346107954208,-0.005670167871515262,-0.3125916319660688,0.0035229145301714482,-0.003895251041398522,-0.19221782026564674,0.003841410019623859,93.84399987928951,-31.142911276246426,82.36870006955337
4.0589999999999975,0,0,0,-43.81921,172.65567,0.0,A,3,1,13,12.6,10.0,-0.061,0.996,-0.105,-0.1,-8.5,0.7,101441,27.7,28.9,0,4.11,77.3,-0.0860346107954208,-0.006007890467173797,-0.3219100452954377,0.0037430387209536143,-0.00961365278493979,-0.1805187129090242,0.004963557611660774,93.79671051681392,-30.641522319322025,82.3978177842689
4.115000000000009,0,0,0,-43.81921,172.65567,0.0,A,3,1,13,12.6,10.0,-0.062,0.99,-0.1,-1.5,1.1,0.1,101441,27.2,28.3,0,4.14,38.2,-0.0860346107954208,-0.006631693247511976,-0.3320444662669569,0.004006414096787402,-0.012665017941419152,-0.18142489321658536,0.004442705810972552,93.8504279232364,-31.10164378916982,82.33647283137937
4.168000000000006,0,0,0,-43.81921,172.65567,0.0,A,3,1,13,12.6,10.0,-0.066,0.994,-0.101,-1.0,-0.2,0.5,101441,27.2,28.5,0,4.14,41.0,-0.0860346107954208,-0.007376043257202884,-0.34172000592906726,0.004214409419353368,-0.015423661669559927,-0.1836898110140146,0.0034061742858567568,93.85925249568344,-31.028601068720004,82.37414747580952
4.209000000000003,0,0,0,-43.81921,172.65567,0.0,A,3,1,13,12.6,10.0,-0.069,0.994,-0.081,-1.0,-4.1,0.5,101440,27.2,28.5,0,4.11,65.2,0.0,-0.008001449655525267,-0.3493502605566621,0.004348001479804016,-0.015083967516900195,-0.18851773179551765,0.003110511589785126,93.85538329055784,-31.027102768724504,82.38830899897941
4.258999999999986,0,0,0,-43.81921,172.65567,0.0,A,3,1,13,12.6,10.0,-0.07,0.997,-0.073,-0.5,1.2,0.6,101440,27.7,28.6,0,4.14,42.4,0.0,-0.008613369765926254,-0.3590304597091616,0.004497490503862401,-0.009392836899147619,-0.1986902343045946,0.00286904937255234,93.88082938629219,-31.218556979827138,82.38999449828688
4.3089999999999975,0,0,0,-43.81921,172.65567,0.0,A,3,1,13,12.6,10.0,-0.044,0.994,-0.105,-0.6,5.0,0.3,101440,27.7,29.0,0,4.13,65.2,0.0,-0.00898760139385098,-0.36901141372569024,0.004640457024825917,-0.005576428217837971,-0.2005479263564602,0.0028496114659869796,93.85947548502968,-31.14800770969526,82.3908890234365
4.359000000000009,0,0,0,-43.81921,172.65567,0.0,A,3,1,13,12.6,10.0,-0.042,0.993,-0.132,-0.6,-5.7,0.1,101440,27.7,29.0,0,4.15,41.9,0.0,-0.009391271046322312,-0.37875608526126653,0.0047835504862526355,-0.010570357881011665,-0.1892389350665032,0.0028741269910804675,93.82618365048167,-30.887142583984517,82.40288233850289
4.408999999999992,0,0,0,-43.81921,172.65567,0.0,A,3,1,13,12.6,10.0,-0.061,0.993,-0.091,-1.5,-7.3,-0.3,101440,26.7,28.1,0,4.14,41.5,0.0,-0.010024254102877198,-0.3880673370985224,0.004919408314121761,-0.01474896438119241,-0.18321113842386055,0.0025601861236863943,93.88712339012858,-31.155238702092447,82.36631460242744
4.459000000000003,0,0,0,-43.81921,172.65567,0.0,A,3,1,13,12.6,10.0,-0.076,0.994,-0.081,-1.3,-2.0,-0.1,101439,26.7,28.9,0,4.14,45.7,0.0860352975608124,-0.01070826488010934,-0.39740315920714414,0.005027310971749997,-0.012611466708087033,-0.19022174592092347,0.0017559201814420914,93.98404454322376,-31.499944195695644,82.35576005315788
4.508999999999986,0,0,0,-43.81921,172.65567,0.0,A,3,1,13,12.6,10.0,-0.086,0.996,-0.072,-1.5,2.6,-0.2,101439,27.7,28.9,0,4.17,37.7,0.0860352975608124,-0.01126827485883631,-0.4072664343137504,0.0051113301076296845,-0.009788932440999402,-0.2043092583434615,0.0016048452537465272,94.02822850144156,-31.583330522368225,82.3624845747859
4.5589999999999975,0,0,0,-43.81921,172.65567,0.0,A,3,1,13,12.6,10.0,-0.086,0.994,-0.088,-0.9,-2.0,0.5,101439,28.0,29.2,0,4.11,71.2,0.0860352975608124,-0.01175835810885438,-0.4178552742279849,0.005195779790704048,-0.009814397559718994,-0.21924433822582134,0.0017731420692272384,94.04239770890248,-31.438098438911986,82.39491687277572
4.609000000000009,0,0,0,-43.81921,172.65567,0.0,A,3,1,13,12.6,10.0,-0.087,0.993,-0.077,-0.4,0.2,0.9,101439,28.0,28.6,0,4.14,42.9,0.0860352975608124,-0.012283635408933772,-0.4291753244675628,0.005273842854369367,-0.011196694443451886,-0.23355767135719077,0.0013493804773848223,94.05161925937836,-31.52547894765199,82.39993907905435
4.658999999999992,0,0,0,-43.81921,172.65567,0.0,A,3,1,13,12.6,10.0,-0.087,0.996,-0.056,0.2,0.1,1.5,101439,27.5,28.6,0,4.15,45.2,0.0860352975608124,-0.012715358532004908,-0.44132136079828704,0.005324455393573226,-0.006072230479399466,-0.2522837818719451,0.0006751210907702239,94.02051984729152,-31.506471019944676,82.40103382568883
4.709000000000003,0,0,0,-43.81921,172.65567,0.0,A,3,1,13,12.6,10.0,-0.093,0.985,-0.038,0.4,13.4,1.0,101439,27.5,28.6,0,4.14,39.6,0.0860352975608124,-0.012712356685442811,-0.45457146080864774,0.005271393142644385,0.006192304341883311,-0.2777202185423619,-0.002797611127923364,93.95532345810537,-31.496391466383752,82.3899381944332
4.758999999999986,0,0,0,-43.81921,172.65567,0.0,A,3,1,13,12.6,10.0,-0.066,0.997,-0.129,-0.1,-4.4,0.9,101439,27.5,28.9,0,4.15,42.4,0.0860352975608124,-0.012402536340360001,-0.46877244814220853,0.0050862219251726565,0.006200509461433307,-0.29031927480026387,-0.004609237570948295,93.81652205876293,-30.823854047225712,82.40659764113603
4.8089999999999975,0,0,0,-43.81921,172.65567,0.0,A,3,1,13,12.6,10.0,-0.044,0.992,-0.082,-0.7,-1.0,0.2,101439,27.7,28.7,0,4.14,49.8,0.0860352975608124,-0.012153887275534445,-0.48322032898592954,0.004861393373843074,0.0037454531315867083,-0.2875959589484454,-0.004383904482232959,93.82111744579518,-31.03282501793855,82.37407372226296
4.859000000000009,0,0,0,-43.81921,172.65567,0.0,A,3,1,13,12.6,10.0,-0.057,0.993,-0.125,-1.2,3.4,-0.4,101439,27.5,28.7,0,4.11,77.7,0.0860352975608124,-0.011979131639758061,-0.4974966063283244,0.004617962538175835,0.003244772299467052,-0.2834551347472184,-0.005353328944454371,93.83995109277375,-31.068652586387717,82.36419733937406
4.908999999999992,0,0,0,-43.81921,172.65567,0.0,A,3,1,13,12.6,10.0,-0.074,0.995,-0.086,-1.0,-6.6,-0.1,101439,27.5,28.4,0,4.11,78.7,0.0860352975608124,-0.011941980512294406,-0.5117059737970574,0.004357328149703054,-0.0017587272009203661,-0.28491956400229446,-0.005072046594460439,93.85938628245684,-30.882445621212174,82.37903252846355
4.959000000000003,0,0,0,-43.81921,172.65567,0.0,A,3,1,13,12.6,10.0,-0.081,0.993,-0.079,-1.2,-5.8,0.2,101439,27.0,28.6,0,4.14,51.2,0.0860352975608124,-0.011991827077758197,-0.5262507843159429,0.004091767239672534,-0.00023513541763086525,-0.29687285675299335,-0.005550389806757953,93.93898321812054,-31.1937971355238,82.35282948884984
5.008999999999986,0,0,0,-43.81921,172.65567,0.0,A,3,1,13,12.6,10.0,-0.07,0.994,-0.077,-0.6,2.7,0.8,101439,27.5,28.6,0,4.15,45.2,0.0860352975608124,-0.011909446033264326,-0.5413886543302433,0.003789652250109482,0.0035303771973868273,-0.30864194381923005,-0.006534209775768264,93.99528630567009,-31.467483248046733,82.34839110543385
5.0589999999999975,0,0,0,-43.81921,172.65567,0.0,A,3,1,13,12.6,10.0,-0.062,0.995,-0.097,-0.2,10.2,0.9,101439,27.5,28.6,0,4.11,75.9,0.0860352975608124,-0.011672862290718424,-0.5569560817400594,0.0034544408545296684,0.005932972504447067,-0.31405515257327116,-0.00687424604742123,93.95054027942687,-31.323940708233987,82.36653933204332
5.121000000000009,0,0,0,-43.81921,172.65567,0.0,A,3,1,13,12.5,10.0,-0.051,0.994,-0.123,-0.1,-2.0,0.9,101439,27.5,28.7,0,4.15,39.6,0.0860352975608124,-0.011487294183150105,-0.5762824695558475,0.0030469772115928146,5.309548162663654e-05,-0.3093767124520309,-0.006269742434410248,93.81633118090303,-30.68585310490505,82.40447211991825
5.164999999999992,0,0,0,-43.81921,172.65567,0.0,A,3,1,13,12.5,10.0,-0.067,0.994,-0.095,-1.1,-4.6,0.1,101443,27.5,28.7,0,4.15,40.5,-0.258101772141013,-0.011579292282448713,-0.5898586664226985,0.0027762059769772785,-0.004234827267928689,-0.30772314513234617,-0.0060380409572098614,93.80409270312673,-30.76507701813637,82.38418246710808
5.211999999999989,0,0,0,-43.81921,172.65567,0.0,A,3,1,13,12.5,10.0,-0.048,0.994,-0.106,-1.0,-0.5,0.4,101443,27.5,29.0,0,4.14,40.5,-0.258101772141013,-0.011798463036734664,-0.6043112438121425,0.002488235850928808,-0.005091587808069781,-0.30728014803552517,-0.006216006959747109,93.85331618507828,-30.96584087116888,82.37757728375539
5.2620000000000005,0,0,0,-43.81921,172.65567,0.0,A,3,1,13,12.5,10.0,-0.095,0.994,-0.089,-1.1,1.4,0.3,101443,28.0,28.2,0,4.14,43.3,-0.258101772141013,-0.012135252327262574,-0.6198232895148841,0.0021790571210619568,-0.008379983813043524,-0.31320168007399674,-0.006151142234924128,93.85669907516369,-30.978218499264344,82.39067433746087
5.312000000000012,0,0,0,-43.81921,172.65567,0.0,A,3,1,13,12.5,10.0,-0.078,0.991,-0.07,-1.0,-2.7,0.5,101443,27.0,28.2,0,4.14,41.5,-0.258101772141013,-0.012548142609451682,-0.6359011043680705,0.0018439005486090457,-0.008135627474517059,-0.3299109140533144,-0.007255120663189263,93.85120987340407,-30.89577002306234,82.41333426535277
5.361999999999995,0,0,0,-43.81921,172.65567,0.0,A,3,1,13,12.5,10.0,-0.053,0.996,-0.082,-0.4,3.2,0.6,101443,27.0,28.6,0,4.15,39.6,-0.258101772141013,-0.012781510784870786,-0.6526138569416577,0.0014467415335208014,-0.0011990995422502954,-0.33859918889040735,-0.008631239940345922,93.86573136474217,-31.017847103138507,82.42070248062973
5.412000000000006,0,0,0,-43.81921,172.65567,0.0,A,3,1,13,12.5,10.0,-0.051,0.994,-0.1,0.1,2.2,0.5,101441,27.5,28.2,0,4.11,67.1,-0.0860346107954208,-0.012738101739527089,-0.6695261008522746,0.0010074560054107356,0.0029354613559977845,-0.33789056753411373,-0.00894018118405272,93.82910647562846,-30.848160977619177,82.42436694794925
5.461999999999989,0,0,0,-43.81921,172.65567,0.0,A,3,1,13,12.5,10.0,-0.054,0.994,-0.115,-0.6,-1.6,0.1,101441,27.2,28.2,0,4.15,45.2,-0.0860346107954208,-0.01266035880724884,-0.6863114130361895,0.0005606969300962884,0.00017425593513322466,-0.3335219198227092,-0.008930181828531262,93.80595114784123,-30.727383097160736,82.39605718685114
5.5120000000000005,0,0,0,-43.81921,172.65567,0.0,A,3,1,13,12.5,10.0,-0.066,0.996,-0.088,-0.9,-2.7,0.1,101441,27.2,28.8,0,4.15,40.5,-0.0860346107954208,-0.012698927708173834,-0.7029969981455921,0.00012466374147851488,-0.0017170119721326195,-0.3339014845532463,-0.008511145716175714,93.83510830836235,-30.792288419504228,82.3759829834992
5.562000000000012,0,0,0,-43.81921,172.65567,0.0,A,3,1,13,12.5,10.0,-0.102,0.993,-0.093,-1.2,-1.2,0.5,101441,28.0,28.7,0,4.15,44.3,-0.0860346107954208,-0.012867607771544783,-0.7200173163301111,-0.000292739321127473,-0.005030190562703786,-0.34691124282735736,-0.008184976788060006,93.87281791017102,-30.911700433381405,82.36648260908042
5.611999999999995,0,0,0,-43.81921,172.65567,0.0,A,3,1,13,12.5,10.0,-0.088,0.993,-0.091,-1.2,-1.1,1.0,101441,27.5,28.7,0,4.14,41.5,-0.0860346107954208,-0.01329171602719944,-0.7377889152626773,-0.0007024165029087525,-0.011934139663488233,-0.36395271447553457,-0.008202110483196762,93.87583540266029,-30.959431702108855,82.38976934997746
5.662000000000006,0,0,0,-43.81921,172.65567,0.0,A,3,1,13,12.5,10.0,-0.04,0.996,-0.099,-1.0,1.5,1.0,101441,27.5,28.7,0,4.14,39.6,-0.0860346107954208,-0.013901169499825174,-0.7560675172062025,-0.0011130557324088009,-0.012443999241535626,-0.36719136326530405,-0.008223458696801434,93.84914898024273,-31.005510672142282,82.4283448309041
5.711999999999989,0,0,0,-43.81921,172.65567,0.0,A,3,1,13,12.5,10.0,-0.042,0.999,-0.094,-0.8,2.7,0.5,101441,27.5,28.7,0,4.15,39.6,-0.0860346107954208,-0.014409424101293613,-0.7742608954341605,-0.0015026533144790577,-0.007886184817208847,-0.3605437658532695,-0.007360444586014154,93.80250591432761,-30.92270188440234,82.46718069686861
5.7620000000000005,0,0,0,-43.81921,172.65567,0.0,A,3,1,13,12.5,10.0,-0.058,0.996,-0.086,-0.6,-1.5,-0.1,101441,27.5,28.7,0,4.11,74.0,-0.0860346107954208,-0.01468239384616021,-0.7922620180848561,-0.0018504935511637448,-0.0030326049774525117,-0.35950114017438617,-0.006553164881370166,93.77568553843639,-30.777116325210553,82.48577190784987
5.812000000000012,0,0,0,-43.81921,172.65567,0.0,A,3,1,13,12.5,10.0,-0.074,0.99,-0.08,-0.4,-1.6,-0.2,101441,27.2,28.4,0,4.15,47.1,-0.0860346107954208,-0.01474523581543164,-0.8104221232431872,-0.002209932288740924,0.0005189262065959052,-0.36690306615869156,-0.007824384621713733,93.81552197720508,-30.835792754990376,82.46020804094874
5.861999999999995,0,0,0,-43.81921,172.65567,0.0,A,3,1,13,12.5,10.0,-0.081,0.993,-0.088,0.0,2.0,0.2,101441,27.2,28.6,0,4.14,46.6,-0.0860346107954208,-0.014710436476135067,-0.8290610985608615,-0.002641871839949386,0.0008730473652674826,-0.3786559465485363,-0.009453197426630644,93.8619629172388,-30.898748685924126,82.42121942039336
5.912000000000006,0,0,0,-43.81921,172.65567,0.0,A,3,1,13,12.5,10.0,-0.063,0.993,-0.111,0.0,1.3,0.9,101440,27.7,28.6,0,4.11,68.4,0.0,-0.014776094970124732,-0.848131488157678,-0.0031222843030330296,-0.003499387124853486,-0.3841596373239497,-0.009763301096710733,93.8576378547288,-30.78590234459666,82.38827473897966
5.961999999999989,0,0,0,-43.81921,172.65567,0.0,A,3,1,13,12.5,10.0,-0.062,0.997,-0.114,-1.0,6.0,1.0,101440,27.2,28.4,0,4.14,48.0,0.0,-0.01512767322028603,-0.867302667089976,-0.003584945799621888,-0.010563742881603251,-0.38268751996823364,-0.00874315876684992,93.81829589791275,-30.71238915442675,82.373227466445
6.0120000000000005,0,0,0,-43.81921,172.65567,0.0,A,3,1,13,12.5,10.0,-0.072,0.996,-0.091,-1.5,-4.1,0.9,101440,27.2,28.5,0,4.14,49.4,0.0,-0.01575463274602489,-0.8865213869102055,-0.003987339071343071,-0.014514638147945437,-0.38606127284077213,-0.007352572101993706,93.73721871678795,-30.4065894030725,82.42928786397125
6.062000000000012,0,0,0,-43.81921,172.65567,0.0,A,3,1,13,12.5,10.0,-0.022,0.995,-0.095,-1.2,-2.2,0.6,101440,27.2,28.5,0,4.14,48.4,0.0,-0.016364346406992802,-0.9057613271075283,-0.004357657446168715,-0.009873908290765527,-0.3835363350519625,-0.007460162891028703,93.7392590397631,-30.600694408047826,82.46809016218438
6.126000000000005,0,0,0,-43.81921,172.65567,0.0,A,3,1,13,12.5,10.0,-0.086,0.995,-0.072,-0.5,2.0,-0.1,101440,27.5,28.6,0,4.14,40.5,0.0,-0.016731327332607255,-0.9304153292099936,-0.004860044407617905,-0.0015942456346874252,-0.3869012306501609,-0.008239429654260208,93.74533899895553,-30.726083532369834,82.49678200324773
6.167000000000002,0,0,0,-43.81921,172.65567,0.0,A,3,1,13,12.5,10.0,-0.035,0.992,-0.121,0.1,2.9,0.4,101438,27.5,28.6,0,4.13,44.3,0.1720712818972014,-0.016809054706255266,-0.9463118114033519,-0.00520694642973378,-0.0021973335676548265,-0.3885369251234714,-0.008682620205052121,93.75613727789901,-30.631937468095472,82.4829395416093
6.215000000000003,0,0,0,-43.81921,172.65567,0.0,A,3,1,13,12.5,10.0,-0.037,0.996,-0.106,-0.1,0.4,0.8,101438,27.7,28.6,0,4.14,39.6,0.1720712818972014,-0.016948510702586413,-0.9646744944203817,-0.005627373610431719,-0.0036133329461426984,-0.37657486725274014,-0.008835178990694668,93.7345119856606,-30.482031892396805,82.45537818138848
6.264999999999986,0,0,0,-43.81921,172.65567,0.0,A,3,1,13,12.5,10.0,-0.061,0.997,-0.093,-0.8,0.7,0.4,101438,27.7,28.9,0,4.11,72.2,0.1720712818972014,-0.017091937746460565,-0.9834241052332794,-0.006050459406506926,-0.002123748808825293,-0.3734095652634262,-0.008088252852319419,93.70799623179045,-30.452431988406826,82.4386608317574
6.314999999999998,0,0,0,-43.81921,172.65567,0.0,A,3,1,13,12.5,10.0,-0.047,0.995,-0.123,-1.1,-0.6,0.5,101438,27.7,28.9,0,4.15,36.8,0.1720712818972014,-0.017280493507874427,-1.0020190529209507,-0.0064285080706485845,-0.005418481647727503,-0.3703883422432601,-0.0070336937133434595,93.70219369728807,-30.40533376151403,82.44643758814452
6.365000000000009,0,0,0,-43.81921,172.65567,0.0,A,3,1,13,12.5,10.0,-0.072,0.995,-0.091,-1.2,-4.6,0.4,101438,28.0,28.9,0,4.14,41.0,0.1720712818972014,-0.01766123084009763,-1.020526417643346,-0.006763451059365037,-0.009811011641197187,-0.3699062466523833,-0.006364025835311597,93.70055231980825,-30.423328158408577,82.46710648968497
6.414999999999992,0,0,0,-43.81921,172.65567,0.0,A,3,1,13,12.5,10.0,-0.079,0.993,-0.065,-1.6,-0.8,-0.2,101437,27.7,28.7,0,4.14,40.1,0.2581079530244445,-0.01806340204462872,-1.039354848700902,-0.007101028032565065,-0.006275836540051899,-0.38323099565011565,-0.007139053092694098,93.73508332218114,-30.638942413082827,82.47440243912078
6.465000000000003,0,0,0,-43.81921,172.65567,0.0,A,3,1,13,12.5,10.0,-0.058,0.993,-0.099,-0.9,-2.9,0.2,101437,27.7,28.4,0,4.11,72.2,0.2581079530244445,-0.01829325689008436,-1.0587409183824048,-0.007489486584592251,-0.0029183572781716675,-0.3922117916098241,-0.008399288988389845,93.7752815506086,-30.66227366504721,82.49874727424117
6.514999999999986,0,0,0,-43.81921,172.65567,0.0,A,3,1,13,12.5,10.0,-0.077,0.995,-0.085,-0.9,-3.1,0.2,101437,27.5,28.4,0,4.15,42.4,0.2581079530244445,-0.01845522247730065,-1.0784938949033576,-0.007917268207590124,-0.003560266210482153,-0.39790726922855224,-0.00871197593153091,93.8083942444689,-30.79232281977151,82.49166620344664
6.564999999999998,0,0,0,-43.81921,172.65567,0.0,A,3,1,13,12.5,10.0,-0.079,0.997,-0.069,-0.8,-2.0,0.1,101437,27.7,28.8,0,4.14,42.4,0.2581079530244445,-0.01855685296728507,-1.0987304300707936,-0.008346644205955224,-0.0005049533888937638,-0.4115541374687024,-0.008463064003069194,93.84309641097461,-30.932282390683593,82.48370274619026
6.615000000000009,0,0,0,-43.81921,172.65567,0.0,A,3,1,13,12.5,10.0,-0.087,0.994,-0.093,-0.6,-0.2,0.6,101437,27.7,28.7,0,4.11,72.2,0.2581079530244445,-0.018580003111422282,-1.1196702124971052,-0.00876126136968644,-0.00042105237659450313,-0.4260371595835732,-0.008121622546175706,93.87525128151474,-31.017055663685085,82.47199190101533
6.664999999999992,0,0,0,-43.81921,172.65567,0.0,A,3,1,13,12.5,10.0,-0.057,0.992,-0.105,-1.0,-0.4,1.0,101434,27.5,28.7,0,4.15,42.9,0.5162220872582411,-0.01872023416810876,-1.141102848998955,-0.009175754914454977,-0.0051881898908663834,-0.4312683004907125,-0.008458119244571363,93.86475279926205,-31.01587710030056,82.4722395603578
6.715000000000003,0,0,0,-43.81921,172.65567,0.0,A,3,1,13,12.5,10.0,-0.063,0.994,-0.104,-1.3,-2.3,0.7,101434,27.5,28.6,0,4.14,41.0,0.5162220872582411,-0.01908327290029158,-1.162639110407279,-0.00960913803802864,-0.009333359396443192,-0.430182155842056,-0.008877205698371258,93.83264203810897,-31.027224926589927,82.50362613222296
6.764999999999986,0,0,0,-43.81921,172.65567,0.0,A,3,1,13,12.5,10.0,-0.07,0.998,-0.067,-1.8,-4.1,0.2,101434,27.5,28.8,0,4.14,45.7,0.5162220872582411,-0.019499360184515983,-1.1843102797608063,-0.010044637178872126,-0.007310131972538616,-0.4366646182993262,-0.00854275993537409,93.832312216356,-31.13079620787562,82.533634347305
6.814999999999998,0,0,0,-43.81921,172.65567,0.0,A,3,1,13,12.5,10.0,-0.022,0.997,-0.123,-1.2,0.2,0.0,101434,28.0,28.8,0,4.14,47.5,0.5162220872582411,-0.019788132694574457,-1.2060221914253906,-0.010448750402209616,-0.00424076842979776,-0.4318118482838487,-0.0076217689981218605,93.87454993049893,-31.320365957225974,82.56657586260262
6.865000000000009,0,0,0,-43.81921,172.65567,0.0,A,3,1,13,12.5,10.0,-0.106,0.999,-0.049,-0.1,-0.4,-0.1,101434,28.0,28.7,0,4.12,44.7,0.5162220872582411,-0.019949784347805033,-1.2277281443441193,-0.010797935582160462,-0.002225297699423865,-0.43642626846510085,-0.006345638199908811,93.8958142316764,-31.29546160921059,82.58036409673619
6.914999999999992,0,0,0,-43.81921,172.65567,0.0,A,3,1,13,12.5,10.0,-0.089,0.99,-0.049,1.7,2.2,1.3,101428,28.0,28.8,0,4.14,47.1,1.03246890067285,-0.01984144720062165,-1.2502481936650351,-0.01114487452484111,0.006558783586760654,-0.4643757043718452,-0.007531919507321856,93.92741802867883,-31.299651601474736,82.5337844274102
6.965000000000003,0,0,0,-43.81921,172.65567,0.0,A,3,1,13,12.5,10.0,-0.031,0.996,-0.08,1.3,19.3,0.7,101428,27.7,28.8,0,4.11,75.4,1.03246890067285,-0.019205603894820757,-1.2736854958738357,-0.01157843627626348,0.018874948645269257,-0.4731163839799607,-0.009810550549568968,93.85796984884777,-31.18407237652565,82.44964187347037
7.014999999999986,0,0,0,-43.81921,172.65567,0.0,A,3,1,13,12.5,10.0,0.0,0.994,-0.201,0.9,0.8,0.7,101428,26.5,27.9,0,4.14,44.7,1.03246890067285,-0.018451964987955635,-1.2966453600672314,-0.012041444910988696,0.011270607629345952,-0.4452781837561787,-0.008709794839445964,93.69259784650788,-30.21705038813673,82.43391380181643
7.064999999999998,0,0,0,-43.81921,172.65567,0.0,A,3,1,13,12.5,10.0,-0.015,0.997,-0.175,-1.8,-9.1,-0.5,101428,26.5,28.6,0,4.14,46.6,1.03246890067285,-0.01851401501031074,-1.317855974836572,-0.012390242506508248,-0.01375260852354964,-0.4031464070172482,-0.005242108981332941,93.66880187253231,-30.166983736378175,82.36571875536796
7.127999999999986,0,0,0,-43.81921,172.65567,0.0,A,3,1,13,12.4,10.0,-0.099,1.0,-0.097,-3.2,-13.1,-0.4,101436,27.5,28.4,0,4.13,39.1,0.3441453109527267,-0.01998237611604034,-1.342908179212177,-0.012571016315284664,-0.03286202975358925,-0.3921616683989353,-0.0004967420909352989,93.82175797664338,-30.712029673509697,82.35732175869832
7.170999999999992,0,0,0,-43.81921,172.65567,0.0,A,3,1,13,12.4,10.0,-0.125,0.996,-0.016,-1.6,-4.5,0.4,101436,27.2,28.4,0,4.14,41.9,0.3441453109527267,-0.021325968504698128,-1.360384208092609,-0.01256958943841602,-0.029630639486298543,-0.4206768841791743,0.0005631084569187295,93.94825632225216,-31.255121099685724,82.39956123925694
7.218999999999994,0,0,0,-43.81921,172.65567,0.0,A,3,1,13,12.4,10.0,-0.085,0.993,-0.034,-0.1,7.8,1.8,101436,27.2,28.9,0,4.14,38.7,0.3441453109527267,-0.022337301015262767,-1.3814394610055225,-0.012591698246000512,-0.012508215120559756,-0.4566253205255233,-0.0014843087729392189,93.98119771940284,-31.45732370386676,82.42546435031255
7.2690000000000055,0,0,0,-43.81921,172.65567,0.0,A,3,1,13,12.4,10.0,-0.089,0.99,-0.062,2.1,19.2,2.4,101436,28.0,28.9,0,4.14,43.8,0.3441453109527267,-0.022649415715374883,-1.4048789554284133,-0.0127418223992174,2.3627116077890378e-05,-0.4809544563898946,-0.004520657355734932,93.83958202857073,-31.06750736311893,82.46879542508978
7.318999999999988,0,0,0,-43.81921,172.65567,0.0,A,3,1,13,12.4,10.0,-0.033,1.0,-0.172,-0.5,2.9,-0.1,101436,28.0,28.9,0,4.14,39.6,0.3441453109527267,-0.02288120350505109,-1.4288682920745366,-0.01293644796598212,-0.009295138703129329,-0.4786190094553597,-0.0032643653148564456,93.5777315177822,-30.116528318969834,82.46189956497426
7.369,0,0,0,-43.81921,172.65567,0.0,A,3,1,13,12.4,10.0,-0.044,0.993,-0.151,-1.5,-14.8,-0.3,101436,28.0,28.9,0,4.14,41.0,0.3441453109527267,-0.0238925633462628,-1.452255070131886,-0.01301173488712431,-0.031159254945329846,-0.45685211283839877,0.0002528884691694747,93.58390882877758,-29.957098886894862,82.44864542508802
7.419000000000011,0,0,0,-43.81921,172.65567,0.0,A,3,1,13,12.4,10.0,-0.049,0.993,-0.109,-3.5,-7.0,-1.0,101436,27.7,28.9,0,4.14,35.9,0.3441453109527267,-0.02571863074368671,-1.4748183036992553,-0.012987202624304152,-0.04188344095160999,-0.44567722985616565,0.000728402043636673,93.7365565559007,-30.673627421405936,82.41143150686781
7.468999999999994,0,0,0,-43.81921,172.65567,0.0,A,3,1,13,12.4,10.0,-0.052,0.992,-0.055,-1.8,-3.8,0.5,101436,27.7,29.0,0,4.11,72.2,0.3441453109527267,-0.027613078816884833,-1.4971327369762482,-0.013000289575155295,-0.033894481976340846,-0.4469001012238561,-0.001251880077682561,93.87048765311626,-30.99898639073283,82.48261774508445
7.5190000000000055,0,0,0,-43.81921,172.65567,0.0,A,3,1,13,12.4,10.0,-0.124,0.996,-0.039,-0.9,-2.0,0.6,101436,27.7,28.6,0,4.15,40.5,0.3441453109527267,-0.02899336027933125,-1.5201008524494954,-0.01310853433011765,-0.021316776521503152,-0.47182451770582823,-0.0030779101208106676,93.89319040120193,-31.175612150961907,82.52573326550551
7.568999999999988,0,0,0,-43.81921,172.65567,0.0,A,3,1,13,12.4,10.0,-0.081,0.997,-0.078,0.2,2.9,1.1,101436,27.5,28.8,0,4.14,42.9,0.3441453109527267,-0.029960079962960528,-1.544388624354952,-0.01325361965525453,-0.01735201082368126,-0.4996863585127667,-0.0027255028846665625,93.8963530852795,-31.26366064901485,82.53393193740614
7.619,0,0,0,-43.81921,172.65567,0.0,A,3,1,13,12.4,10.0,-0.006,1.003,-0.137,1.1,12.3,0.8,101439,28.0,28.8,0,4.14,39.1,0.0860352975608124,-0.030858523487664637,-1.5691459845625377,-0.013322995685205707,-0.01858573016447492,-0.4906080497904379,-4.953831337983815e-05,93.83329890316288,-31.11204092800493,82.5214222581935
7.669000000000011,0,0,0,-43.81921,172.65567,0.0,A,3,1,13,12.4,10.0,-0.021,0.997,-0.138,-1.4,-2.4,-0.5,101439,28.0,28.8,0,4.14,41.0,0.0860352975608124,-0.03193434309558887,-1.5929668240121018,-0.013243830071608707,-0.024447054152484583,-0.4622255281919059,0.003216162857259151,93.7163864124314,-30.492505349860576,82.4911293131444
7.718999999999994,0,0,0,-43.81921,172.65567,0.0,A,3,1,13,12.4,10.0,-0.08,0.994,-0.097,-1.8,-16.9,0.4,101439,27.7,28.9,0,4.15,35.9,0.0860352975608124,-0.033328038538803124,-1.615890833864971,-0.013053729617095259,-0.03130076357610485,-0.454734865923172,0.004387855323281352,93.78594411813523,-30.593192835955964,82.4906192349073
7.7690000000000055,0,0,0,-43.81921,172.65567,0.0,A,3,1,13,12.4,10.0,-0.099,0.987,-0.089,-2.7,1.1,-1.0,101439,28.0,28.9,0,4.14,37.7,0.0860352975608124,-0.03506674373391881,-1.6389826161086405,-0.012867886074611829,-0.038247444228506865,-0.46893642382339884,0.0030458863760541564,93.914422786789,-31.418517957662093,82.47927278854763
7.818999999999988,0,0,0,-43.81921,172.65567,0.0,A,3,1,13,12.4,10.0,-0.03,0.998,-0.08,-2.1,8.2,-1.0,101439,28.0,28.9,0,4.11,76.8,0.0860352975608124,-0.03691393060057713,-1.6625525758429525,-0.012752423152810707,-0.035640030437850946,-0.4738619655494,0.0015726304959922627,93.98686766301128,-31.34246018976397,82.54138728723797
7.869,0,0,0,-43.81921,172.65567,0.0,A,3,1,13,12.4,10.0,-0.016,0.997,-0.066,-0.4,-11.0,0.8,101442,28.5,28.8,0,4.14,48.4,-0.1720685348458202,-0.0382480729075796,-1.685990653092547,-0.012692806330540991,-0.017725661842235948,-0.46366112443417173,0.0008120423947958541,94.00559584694021,-30.91445004233752,82.60154347201834
7.919000000000011,0,0,0,-43.81921,172.65567,0.0,A,3,1,13,12.4,10.0,-0.082,0.997,-0.05,-0.1,-0.5,-0.8,101442,28.0,28.8,0,4.14,46.6,-0.1720685348458202,-0.03869981701163607,-1.7092776514130292,-0.012675169615346453,-0.0003441023200186667,-0.467818808384902,-0.00010657378701448266,94.06501883449545,-31.45001892879102,82.55561413839511
7.968999999999994,0,0,0,-43.81921,172.65567,0.0,A,3,1,13,12.4,10.0,-0.076,0.987,-0.096,0.1,5.9,0.4,101442,28.0,28.6,0,4.11,78.2,-0.1720685348458202,-0.03862901411421378,-1.7329839118787451,-0.012725103961218053,0.0031762182169112452,-0.48043161024405534,-0.0018908000478502153,94.13811968072233,-31.45459418526963,82.48730889941734
8.019000000000005,0,0,0,-43.81921,172.65567,0.0,A,3,1,13,12.4,10.0,-0.103,0.984,-0.133,0.0,3.1,1.0,101442,27.2,28.2,0,4.12,73.1,-0.1720685348458202,-0.038878039969467565,-1.7571669165953971,-0.012888027643629974,-0.013137252427060238,-0.48688857842180366,-0.004626147248625167,94.09247101903956,-31.149730246750508,82.4708637652577
8.069999999999993,0,0,0,-43.81921,172.65567,0.0,A,3,1,13,12.4,10.0,-0.084,0.998,-0.082,0.3,-3.3,2.2,101442,26.7,28.2,0,4.14,40.5,-0.1720685348458202,-0.03990852655906993,-1.7822693560455527,-0.01313089932099833,-0.02727398638088547,-0.49752081178061397,-0.004898232256018521,94.03239278032328,-30.9843546544897,82.46600133169906
8.13300000000001,0,0,0,-43.81921,172.65567,0.0,A,3,1,13,12.5,10.0,0.003,1.012,-0.092,2.0,9.0,3.5,101445,28.2,29.0,0,4.14,38.7,-0.430166186587999,-0.041271991554644824,-1.8133826101161883,-0.013278453039867558,-0.01601061665322684,-0.4902015396678754,0.00021398721255220382,93.93239190530714,-31.189709652336404,82.45443165755884
8.173000000000002,0,0,0,-43.81921,172.65567,0.0,A,3,1,13,12.5,10.0,0.031,0.998,-0.153,-1.3,15.4,0.4,101445,28.2,28.8,0,4.11,71.2,-0.430166186587999,-0.041773218271845665,-1.8323887586308796,-0.013203515073341639,-0.00905071920682026,-0.4601058860668778,0.003532911113744511,93.73341143191345,-30.839197580359148,82.44882815174893
8.222000000000008,0,0,0,-43.81921,172.65567,0.0,A,3,1,13,12.5,10.0,-0.046,0.989,-0.145,0.3,-7.4,1.1,101445,27.5,28.8,0,4.14,37.7,-0.430166186587999,-0.04244053988699668,-1.8541463063812946,-0.013017562191402238,-0.018186897738115312,-0.42795728741933153,0.004057002434801488,93.6185940788503,-30.078922631590356,82.53627415026911
8.271999999999991,0,0,0,-43.81921,172.65567,0.0,A,3,1,13,12.5,10.0,-0.055,0.992,-0.083,-1.9,-2.1,-1.2,101445,27.5,28.7,0,4.14,41.0,-0.430166186587999,-0.043491759458902136,-1.8754052507468286,-0.012850547062683447,-0.02386188513811751,-0.42240048720231776,0.002623602713952384,93.63383015421626,-30.437923478546292,82.47843459792534
8.322000000000003,0,0,0,-43.81921,172.65567,0.0,A,3,1,13,12.5,10.0,-0.073,0.999,-0.083,-0.8,-5.9,-0.2,101445,27.5,28.6,0,4.12,71.2,-0.430166186587999,-0.04457598187996273,-1.8967108817454799,-0.012722380086496173,-0.019507011704296258,-0.42982475274353377,0.002503076333537425,93.74134686035428,-30.519149842635773,82.48373837625135
8.371999999999986,0,0,0,-43.81921,172.65567,0.0,A,3,1,13,12.5,10.0,-0.122,0.99,-0.075,-0.8,-5.7,0.8,101439,27.5,28.6,0,4.14,41.9,0.0860352975608124,-0.04561231126182406,-1.9187472060198285,-0.012593564591549916,-0.021946163570171175,-0.4516282182307094,0.0026495434643146144,93.82042378685561,-30.79526679873418,82.44825483820709
8.421999999999997,0,0,0,-43.81921,172.65567,0.0,A,3,1,13,12.5,10.0,-0.069,0.994,-0.084,-0.2,8.5,1.0,101439,27.5,28.8,0,4.14,36.4,0.0860352975608124,-0.04676797958003743,-1.9418413961241994,-0.012488510217492997,-0.02428056915835324,-0.4721393859439176,0.0015526314979611893,93.84052541129343,-31.068019665437852,82.44276022630213
8.472000000000008,0,0,0,-43.81921,172.65567,0.0,A,3,1,13,12.5,10.0,-0.066,0.993,-0.085,0.6,12.4,1.3,101439,28.0,28.9,0,4.15,38.2,0.0860352975608124,-0.04791530401033655,-1.9656427176963518,-0.012433814656450264,-0.021612408053601158,-0.4799134769419624,0.0006351909437476805,93.7404243644019,-30.638236810473906,82.46893428603133
8.521999999999991,0,0,0,-43.81921,172.65567,0.0,A,3,1,13,12.5,10.0,-0.027,0.995,-0.143,-1.2,-3.7,0.2,101439,27.7,28.9,0,4.12,66.1,0.0860352975608124,-0.049103999883472284,-1.98945214201664,-0.012397347753697475,-0.025935426871844497,-0.47246349586989217,0.0008234851663643635,93.59419661627842,-30.017076889768255,82.4776102350619
8.572000000000003,0,0,0,-43.81921,172.65567,0.0,A,3,1,13,12.5,10.0,-0.042,0.991,-0.127,-2.3,-13.4,-0.5,101439,27.7,28.2,0,4.15,42.4,0.0860352975608124,-0.050654287922535304,-2.0126423319139404,-0.012346407194138107,-0.036076094690662266,-0.4551441000219185,0.0012141372160099535,93.63318778604688,-30.18677453223674,82.48289254383657
8.621999999999986,0,0,0,-43.81921,172.65567,0.0,A,3,1,13,12.5,10.0,-0.056,0.999,-0.077,-1.6,-4.5,-0.7,101435,27.2,28.9,0,4.14,40.1,0.4301833556922331,-0.052457788730277045,-2.0353044057628527,-0.012281851016843079,-0.03606393761903206,-0.45133885393488304,0.001368109875792021,93.7862371634661,-30.832722519857494,82.48502835082874
8.671999999999997,0,0,0,-43.81921,172.65567,0.0,A,3,1,13,12.5,10.0,-0.074,1.0,-0.066,-2.1,0.7,-1.3,101435,27.7,28.9,0,4.11,71.2,0.4301833556922331,-0.054041184465520094,-2.058109650259438,-0.012180110274175857,-0.02727189179067546,-0.46087092592831597,0.0027015198308959504,93.88366879522552,-31.036190155126352,82.47978078614291
8.722000000000008,0,0,0,-43.81921,172.65567,0.0,A,3,1,13,12.5,10.0,-0.094,0.99,-0.081,-2.3,-9.0,-0.8,101435,27.7,28.5,0,4.14,38.2,0.4301833556922331,-0.0553345993880634,-2.081557072816065,-0.012050128773780849,-0.02446470511104486,-0.4770259763365593,0.0024977401849032074,93.97619838243811,-30.9779795740406,82.50195265143057
8.771999999999991,0,0,0,-43.81921,172.65567,0.0,A,3,1,13,12.5,10.0,-0.082,0.995,-0.02,0.4,-6.0,0.2,101435,27.2,28.7,0,4.14,40.1,0.4301833556922331,-0.0562846466090691,-2.1059762747862254,-0.011983185148007638,-0.013537183729196305,-0.4997421024701914,0.00018000484602612903,94.11389115572976,-31.403906337445573,82.51048011906815
8.822000000000003,0,0,0,-43.81921,172.65567,0.0,A,3,1,13,12.5,10.0,-0.055,0.99,-0.084,-0.6,13.3,0.3,101435,27.7,28.7,0,4.15,45.7,0.4301833556922331,-0.05657937167210947,-2.1313016617513223,-0.01204460561148744,0.0017481812075841995,-0.5132733761334517,-0.002636823385217674,94.17120414372877,-31.687603964047714,82.42533301603653
8.871999999999986,0,0,0,-43.81921,172.65567,0.0,A,3,1,13,12.5,10.0,-0.087,0.993,-0.109,0.3,-1.6,1.6,101440,27.5,28.6,0,4.13,50.3,0.0,-0.05658158303858469,-2.1570511075779897,-0.012206387313434324,-0.00183663586659306,-0.516704456933597,-0.0038344446926598967,94.07420177253803,-31.015320422091918,82.47064085963589
8.921999999999997,0,0,0,-43.81921,172.65567,0.0,A,3,1,13,12.5,10.0,-0.064,0.999,-0.089,1.2,-5.9,1.8,101440,27.5,28.9,0,4.14,47.5,0.0,-0.05680902073043695,-2.183017531717738,-0.012367044068227466,-0.007260871807495298,-0.5219525086560942,-0.002591825499064274,94.0165608508466,-31.090099039381485,82.45021153623733
8.972000000000008,0,0,0,-43.81921,172.65567,0.0,A,3,1,13,12.5,10.0,-0.084,0.986,-0.061,1.8,18.5,0.8,101440,27.7,28.9,0,4.14,48.9,0.0,-0.05704852165049852,-2.2093992777387386,-0.01253778622799026,-0.002319164994965305,-0.5333173321836914,-0.004237860891445977,93.98049381890438,-31.37935646089409,82.3737519655156
9.021999999999991,0,0,0,-43.81921,172.65567,0.0,A,3,1,13,12.5,10.0,-0.088,0.994,-0.15,-0.4,4.6,1.0,101440,27.5,28.6,0,4.11,74.0,0.0,-0.057422504257625365,-2.236312873057795,-0.012775895787830987,-0.012640139290113504,-0.5432264805789289,-0.005286521502186335,93.81345215002585,-30.452860290513676,82.33441590200422
9.073000000000008,0,0,0,-43.81921,172.65567,0.0,A,3,1,13,12.5,10.0,-0.064,0.992,-0.112,-1.0,-8.1,0.8,101440,27.5,28.4,0,4.13,71.2,0.0,-0.05852976724206774,-2.264025660792049,-0.013010718980726838,-0.030781938531142333,-0.5435495089993174,-0.003922231160393136,93.7416096196676,-30.211778122070882,82.35523222446345
9.135999999999996,0,0,0,-43.81921,172.65567,0.0,A,3,1,13,12.4,10.0,-0.095,0.997,-0.08,-1.6,-2.5,0.1,101433,27.2,28.4,0,4.15,38.7,0.6022615056609358,-0.060630989675842135,-2.298690406841615,-0.013239852545375953,-0.03592353555694638,-0.5569186195585558,-0.003351850257040431,93.79080726916708,-30.70526348779479,82.34898881581377
9.175000000000011,0,0,0,-43.81921,172.65567,0.0,A,3,1,13,12.4,10.0,-0.092,0.993,-0.038,-1.2,-3.8,-0.1,101433,28.2,29.1,0,4.11,68.4,0.6022615056609358,-0.06191542138701234,-2.32079720351468,-0.013381294074211554,-0.02994475732355022,-0.5767632611109734,-0.003901561478115696,93.81900484684752,-30.790668850961463,82.36954604929065
9.224999999999994,0,0,0,-43.81921,172.65567,0.0,A,3,1,13,12.4,10.0,-0.094,0.988,-0.058,0.2,0.9,0.8,101433,28.2,28.7,0,4.15,39.1,0.6022615056609358,-0.06311400779421698,-2.350325747963763,-0.013661963960882293,-0.01799869896465181,-0.6043785168527632,-0.007325233988717688,93.87679398805658,-30.963262887568643,82.36472679807459
9.275000000000006,0,0,0,-43.81921,172.65567,0.0,A,3,1,13,12.4,10.0,-0.067,0.996,-0.091,1.2,11.5,1.3,101433,27.7,28.7,0,4.14,41.9,0.6022615056609358,-0.06390920165488374,-2.380935420154336,-0.014072248591837345,-0.013809055462011603,-0.620008370769862,-0.009086151249480706,93.84621069428856,-30.90892423508924,82.33528706901126
9.324999999999989,0,0,0,-43.81921,172.65567,0.0,A,3,1,13,12.4,10.0,-0.035,0.996,-0.164,-0.1,12.3,0.6,101433,27.7,29.0,0,4.14,40.1,0.6022615056609358,-0.06484957402719413,-2.4117052209814323,-0.014477599943226092,-0.023805839430416607,-0.610783662314408,-0.007127902806074645,93.70464349693563,-30.332691419891855,82.31223379948266
9.375,0,0,0,-43.81921,172.65567,0.0,A,3,1,13,12.4,10.0,-0.04,0.994,-0.177,-1.0,-5.5,0.7,101434,27.7,28.6,0,4.11,71.2,0.5162220872582411,-0.0666527697907665,-2.441633674262776,-0.0147527247446897,-0.04832199111246162,-0.5863544689390817,-0.003877089252467226,93.59782997664982,-29.712142819070454,82.33551549881845
9.425000000000011,0,0,0,-43.81921,172.65567,0.0,A,3,1,13,12.4,10.0,-0.081,0.997,-0.083,-2.5,-9.1,0.1,101434,27.7,28.6,0,4.15,41.0,0.5162220872582411,-0.06939752721720864,-2.470843055641707,-0.0148939519195337,-0.061468305945199184,-0.5820207862178975,-0.0017719977412914644,93.62248104157669,-29.974285097676674,82.33808635392595
9.474999999999994,0,0,0,-43.81921,172.65567,0.0,A,3,1,13,12.4,10.0,-0.09,0.998,-0.023,-2.2,-8.1,0.1,101434,28.0,28.9,0,4.16,38.7,0.5162220872582411,-0.07215059396945961,-2.500561352476526,-0.014983942779383018,-0.04865436414487685,-0.6067110871752603,-0.001827636652682488,93.70917219445032,-30.410849516675984,82.3843263090572
9.525000000000006,0,0,0,-43.81921,172.65567,0.0,A,3,1,13,12.4,10.0,-0.056,0.992,-0.048,-0.9,1.3,0.5,101434,28.0,28.9,0,4.11,67.1,0.5162220872582411,-0.07402114627666288,-2.53147131889943,-0.015136207079726915,-0.026167728143237264,-0.6296875697406037,-0.004262935361072008,93.78819056585782,-30.797906412751015,82.41893519892768
9.574999999999989,0,0,0,-43.81921,172.65567,0.0,A,3,1,13,12.4,10.0,-0.068,0.984,-0.125,0.1,7.5,0.8,101430,27.7,28.9,0,4.11,69.4,0.8603838820215451,-0.07525018279035206,-2.5630849649846144,-0.015440854521591354,-0.022993732404346344,-0.634858273667212,-0.007922962313509703,93.77198609810465,-30.72172992522168,82.43706077459743
9.625,0,0,0,-43.81921,172.65567,0.0,A,3,1,13,12.4,10.0,-0.023,0.998,-0.142,-0.1,6.7,0.9,101430,27.0,28.2,0,4.15,40.5,0.8603838820215451,-0.07670438508208731,-2.5944974202070363,-0.01584641769472334,-0.035174359265050366,-0.6216399352293797,-0.008299564611765968,93.69120673618005,-30.34022305752309,82.43793521272711
9.675000000000011,0,0,0,-43.81921,172.65567,0.0,A,3,1,13,12.4,10.0,-0.115,0.996,-0.124,-1.2,-2.6,0.5,101430,27.0,28.7,0,4.15,39.1,0.8603838820215451,-0.07889427336626584,-2.6255200374261167,-0.016182479055119582,-0.05242117210207074,-0.6192647535335523,-0.005142889804080694,93.611118814077,-29.99901926912598,82.44802246850314
9.724999999999994,0,0,0,-43.81921,172.65567,0.0,A,3,1,13,12.4,10.0,-0.086,0.989,-0.088,-3.6,-20.0,-1.2,101430,27.7,28.7,0,4.14,40.1,0.8603838820215451,-0.08186494152807304,-2.656930240448455,-0.01642704155913905,-0.06640555437025777,-0.6371433673604054,-0.004639610356701353,93.62464975580626,-30.11614829060119,82.4660831752921
9.775000000000006,0,0,0,-43.81921,172.65567,0.0,A,3,1,13,12.4,10.0,-0.056,0.995,-0.049,-2.5,-2.4,-0.2,101430,27.2,28.5,0,4.14,41.5,0.8603838820215451,-0.08497403773318264,-2.6891283575000418,-0.016716993199965856,-0.057958293834097854,-0.6507813147027742,-0.006958455276368243,93.86844553368732,-31.08463895782868,82.48681289255445
9.824999999999989,0,0,0,-43.81921,172.65567,0.0,A,3,1,13,12.4,10.0,-0.09,0.995,-0.079,-3.0,6.5,-1.5,101427,27.2,28.7,0,4.16,45.2,1.1185124403604751,-0.0876411050418077,-2.7220210366123676,-0.017089146687618424,-0.04872439851094057,-0.6649258497907147,-0.007927684229739594,93.9210031523042,-31.18730809769036,82.54947480507356
9.875,0,0,0,-43.81921,172.65567,0.0,A,3,1,13,12.4,10.0,-0.012,0.978,-0.083,0.6,-14.6,1.6,101427,27.7,28.7,0,4.11,76.8,1.1185124403604751,-0.0899081213366226,-2.755261598506283,-0.017609211962062873,-0.041956253281634805,-0.6646966259656093,-0.012874926748033623,93.98159656363279,-30.840369394951985,82.63309211877828
9.925000000000011,0,0,0,-43.81921,172.65567,0.0,A,3,1,13,12.4,10.0,-0.107,0.994,0.001,1.1,6.5,1.2,101427,30.2,28.4,0,4.15,44.3,1.1185124403604751,-0.09148156052602578,-2.7888267880356947,-0.018421749718223565,-0.020981314294478397,-0.6779109552105431,-0.019626583498386724,94.02167039072887,-31.559598326480614,82.54717035636035
9.974999999999994,0,0,0,-43.81921,172.65567,0.0,A,3,1,13,12.4,10.0,-0.114,0.985,-0.085,1.6,5.7,2.0,101427,30.2,28.6,0,4.13,49.8,1.1185124403604751,-0.0923260765053398,-2.823593650619833,-0.019491299971266376,-0.012799324878094057,-0.7127635481554668,-0.023155426623340282,93.92524360169674,-31.230158999671637,82.50724047529127
10.025000000000006,0,0,0,-43.81921,172.65567,0.0,A,3,1,13,12.4,10.0,-0.036,0.992,-0.16,1.5,18.8,1.8,101427,39.7,28.6,0,4.14,45.2,1.1185124403604751,-0.09336004777240617,-2.859245963787816,-0.02068161885552888,-0.028559525804551095,-0.7133289785635205,-0.02445732874714903,93.78864753754584,-30.945668098367552,82.46261045621742
10.075999999999993,0,0,0,-43.81921,172.65567,0.0,A,3,1,13,12.4,10.0,-0.02,0.987,-0.198,-1.1,-6.5,0.8,101431,44.7,28.8,0,4.14,48.9,0.7743424030324028,-0.09552360057570526,-2.8948054197442055,-0.02191240444624585,-0.05628568216798294,-0.6811594903148384,-0.023808772849606436,93.5601777225321,-29.991883955251414,82.4660992333161
10.13900000000001,0,0,0,-43.81921,172.65567,0.0,A,3,1,13,12.4,10.0,-0.011,9.833,-0.152,-16.5,69.0,1.0,101431,44.7,28.7,0,4.14,39.1,0.7743424030324028,-0.09023998814445533,-2.936676347611106,0.06207094914755792,0.22401941014412693,-0.648076314983244,2.6899469821760076,93.59278032311964,-30.385526483792173,82.47470075604129
10.179000000000002,0,0,0,-43.81921,172.65567,0.0,A,3,1,13,12.4,10.0,0.058,10.635,-0.267,-7.1,123.5,-8.8,101431,57.2,28.7,0,4.15,41.0,0.7743424030324028,-0.07396346733610736,-2.9617538872923426,0.241779285415652,0.5898066302734336,-0.6058006690788452,6.295469831230484,93.17486822097314,-27.640346414330164,83.30931390897943
10.228000000000009,0,0,0,-43.81921,172.65567,0.0,A,3,1,13,12.4,10.0,0.184,11.534,-0.027,1.4,141.0,3.1,101431,104.2,28.7,0,4.11,67.5,0.7743424030324028,-0.03267942503909467,-2.98856144088066,0.6683679386030785,1.0952563206248167,-0.4883851916686524,11.116311931519279,92.91653668038411,-21.570177097369157,83.73046558906036
10.277999999999992,0,0,0,-43.81921,172.65567,0.0,A,3,1,13,12.4,10.0,-0.54,11.946,-0.575,10.1,152.2,-0.2,101431,104.2,28.7,0,4.14,41.9,0.7743424030324028,0.03281003935315381,-3.01287476526022,1.3554816337859295,1.5243222550660156,-0.48414778351409693,16.36823587580413,91.9791470849452,-14.571910768997334,83.91662706271067
10.328000000000003,0,0,0,-43.81921,172.65567,0.0,A,3,1,13,12.4,10.0,0.262,11.64,-0.746,5.7,95.0,-2.6,101425,151.0,28.7,0,4.14,41.9,1.2906015805207809,0.11597801222794259,-3.036207625568532,2.3062713681393876,1.8023966599247794,-0.4491666288181654,21.66335349832555,91.16416991798894,-7.002949401629929,83.52934071594841
10.377999999999986,0,0,0,-43.81921,172.65567,0.0,A,3,1,13,12.4,10.0,-0.148,11.486,-0.338,3.4,67.0,-2.5,101425,192.0,28.7,0,4.11,70.3,1.2906015805207809,0.21595132369177467,-3.056262500543523,3.518696176223999,2.1965357986298684,-0.3530283701817289,26.833638825075468,90.76486240952032,-2.2576151262214035,83.24144168491316
10.427999999999997,0,0,0,-43.81921,172.65567,0.0,A,3,1,13,12.4,10.0,0.066,11.264,-0.488,9.6,83.0,-3.1,101425,192.0,28.8,0,4.16,38.7,1.2906015805207809,0.3373545055605204,-3.073009159366164,4.987154720980248,2.6595914761188566,-0.3168379827237723,31.904702965161153,90.50854565352256,1.0971642430140063,83.03887661194754
10.478000000000009,0,0,0,-43.81921,172.65567,0.0,A,3,1,13,12.4,10.0,-0.02,11.029,-0.409,18.2,80.1,-3.2,101425,229.7,28.8,0,4.14,44.7,1.2906015805207809,0.482040659111321,-3.0870867585211146,6.706349585595834,3.1278546659118516,-0.2462659834741201,36.86309161944664,90.15935283577863,5.246749201355213,82.504383481519
10.527999999999992,0,0,0,-43.81921,172.65567,0.0,A,3,1,13,12.4,10.0,0.033,10.848,-0.572,22.4,66.1,-2.4,101425,262.7,29.1,0,4.14,36.4,1.2906015805207809,0.6509827983669934,-3.0977926436804215,8.670861135701882,3.629830904317346,-0.18196942289829587,41.71737038482204,89.77744962818046,9.248510422836539,81.51103318092723
10.578000000000003,0,0,0,-43.81921,172.65567,0.0,A,3,1,13,12.4,10.0,-0.058,10.852,-0.345,23.9,55.1,-1.0,101355,262.7,28.9,0,4.15,38.2,7.315453295806254,0.8477083874837337,-3.104996412405214,10.876670182797156,4.239192660350479,-0.10618132609333317,46.514991498968854,89.38513937181384,12.545341004200816,80.28171586798504
10.627999999999986,0,0,0,-43.81921,172.65567,0.0,A,3,1,13,12.4,10.0,0.016,10.784,-0.503,27.6,43.1,-3.9,101355,295.7,28.9,0,4.11,65.2,7.315453295806254,1.0779502544321304,-3.107943513336976,13.321576908365067,4.970482017588529,-0.011702711177203853,51.28127752378094,88.94348359376598,15.279510004791572,78.94537927018807
10.677999999999997,0,0,0,-43.81921,172.65567,0.0,A,3,1,13,12.4,10.0,-0.09,10.812,-0.486,29.0,29.1,-5.7,101355,331.2,28.7,0,4.14,41.5,7.315453295806254,1.3468691381876674,-3.1056640224910153,16.00425217656035,5.786273332630502,0.1028823450156251,56.02573320400589,88.7023751623356,17.444867656643346,77.46235469162241
10.728000000000009,0,0,0,-43.81921,172.65567,0.0,A,3,1,13,12.4,10.0,-0.074,10.744,-0.155,30.4,19.1,-16.1,101355,331.2,29.0,0,4.11,66.6,7.315453295806254,1.6616773816485828,-3.096128020118406,18.92285393875322,6.806056405803254,0.2785577498886667,60.71833728368235,88.66112759128202,18.94310605949499,75.96439574902494
10.777999999999992,0,0,0,-43.81921,172.65567,0.0,A,3,1,13,12.4,10.0,0.109,10.631,-0.139,22.1,11.2,-18.5,101355,364.2,29.0,0,4.14,46.6,7.315453295806254,2.031603332018905,-3.0737841721410586,22.07382631172591,7.990981609014677,0.61519616920552,65.32055763526823,89.2481885808472,20.088457028680672,74.60545789485899
10.828000000000003,0,0,0,-43.81921,172.65567,0.0,A,3,1,13,12.4,10.0,0.243,10.792,-0.099,6.5,0.0,-11.0,101218,394.7,28.9,0,4.14,45.2,19.11670544923861,2.4626135072815605,-3.0297194927221693,25.454372017364136,9.24942540148763,1.1473910075496447,69.90127059023004,90.05338969210294,20.897081185329142,73.74723674901625
10.877999999999986,0,0,0,-43.81921,172.65567,0.0,A,3,1,13,12.4,10.0,0.3,10.626,-0.006,-15.3,-8.8,4.9,101218,394.7,28.7,0,4.09,78.2,19.11670544923861,2.9577707718181414,-2.9554946215763587,29.06322039481959,10.55686517998236,1.8216038382837862,74.45266450803744,90.63679431326295,21.06952775084887,73.59599250114151
10.927999999999997,0,0,0,-43.81921,172.65567,0.0,A,3,1,13,12.4,10.0,0.204,10.539,-0.185,-32.6,-17.7,14.9,101218,427.0,28.7,0,4.14,43.3,19.11670544923861,3.5169924145411366,-2.8478843511229854,32.89839512524631,11.812000528932362,2.482806979850169,78.9543247089964,90.53328410340242,20.59667824390634,74.28900716983885
10.978000000000009,0,0,0,-43.81921,172.65567,0.0,A,3,1,13,12.4,10.0,0.011,10.482,-0.704,-29.3,-21.8,14.2,101218,457.0,28.8,0,4.14,49.4,19.11670544923861,4.13348057335382,-2.7122168040772965,36.959582527760766,12.847525823569372,2.943894901976152,83.49317139154483,90.02948014919511,19.56656136063465,75.71074886132241
11.027999999999992,0,0,0,-43.81921,172.65567,0.0,A,3,1,13,12.4,10.0,-0.076,10.516,-0.874,-4.9,-30.6,8.4,101218,457.0,28.7,0,4.15,42.9,19.11670544923861,4.795789721067871,-2.5589919216265224,41.24931362215013,13.644840085001725,3.1851003960568915,88.09607238408837,89.5906362754687,18.356973938842614,76.99790737000454
11.091000000000008,0,0,0,-43.81921,172.655654,10.585,A,3,1,13,12.3,10.0,0.011,10.457,-0.515,25.1,-35.7,-4.6,101008,483.0,28.4,0,4.14,41.9,37.23134867966948,5.686468848548468,-2.350889645719756,46.98191328659187,14.63068777151769,3.421321061299036,93.89121855052207,89.5240596064702,16.381046604810415,77.24242499213696
11.135999999999996,0,0,0,-43.81921,172.655654,10.585,A,3,1,13,12.3,10.0,0.214,10.352,-0.179,26.5,-38.8,-13.9,101008,508.2,28.4,0,4.15,36.4,37.23134867966948,6.364142073502978,-2.190714045254242,51.2984176537034,15.488122226468926,3.697594514948008,97.95341998782175,90.13238801384216,14.88017859784468,76.24523897152885
11.182999999999993,0,0,0,-43.81921,172.655654,10.585,A,3,1,13,12.3,10.0,0.09,10.347,-0.08,15.7,-39.0,-13.0,101008,508.2,28.9,0,4.11,71.7,37.23134867966948,7.117129375474876,-2.0076420243916457,56.000265685206095,16.5538906234011,4.092704245162953,102.1252196506033,91.26497662159387,13.289978533097276,75.24240419335055
11.233000000000004,0,0,0,-43.81921,172.655654,10.585,A,3,1,13,12.3,10.0,0.268,10.289,0.066,-5.4,-39.4,-4.2,101008,531.2,28.7,0,4.12,69.4,37.23134867966948,7.976333193932502,-1.7898892752861806,61.21604392863297,17.814262114896124,4.617405719053676,106.50591008642436,92.44352977658518,11.593058384969385,74.67620356160485
11.282999999999987,0,0,0,-43.81921,172.655654,10.585,A,3,1,13,12.3,10.0,0.289,10.095,-0.196,-11.9,-43.2,4.4,101008,555.2,28.7,0,4.14,39.1,37.23134867966948,8.897708915526714,-1.543804768986117,66.64927108601292,19.040766748884863,5.225974532952229,110.82317620884744,93.19077914352461,9.763869283918229,75.04952398695433
11.332999999999998,0,0,0,-43.81921,172.655654,10.585,A,3,1,13,12.3,10.0,0.088,9.982,-0.449,-5.1,-45.2,5.8,100771,555.2,29.2,0,4.14,38.7,57.71168306867147,9.876333362026335,-1.2690155000347318,72.29762439602496,20.104211111091068,5.7655962251006745,115.11095619158301,93.545428790571,7.636000020655421,75.663011102162
11.38300000000001,0,0,0,-43.81921,172.655654,10.585,A,3,1,13,12.3,10.0,0.082,9.932,-0.426,4.8,-47.9,-2.3,100771,580.5,28.7,0,4.11,70.8,57.71168306867147,10.906022464355763,-0.9691932205534948,78.16004311244873,21.08335298207665,6.227294954146084,119.38579246531485,93.83848517780851,5.391437447669525,75.91609987916989
11.432999999999993,0,0,0,-43.81921,172.655654,10.585,A,3,1,13,12.3,10.0,-0.042,9.805,-0.194,8.8,-50.6,-7.0,100771,599.7,28.7,0,4.14,40.1,57.71168306867147,11.986058557884505,-0.6470475584859825,84.23479970186115,22.118090759087757,6.6585315285588,123.60447111126463,94.55665984364384,3.1152462985981915,75.69421418035542
11.483000000000004,0,0,0,-43.81921,172.655654,10.585,A,3,1,13,12.3,10.0,0.338,9.693,-0.029,0.2,-51.9,-5.6,100771,599.7,28.8,0,4.14,41.9,57.71168306867147,13.1205742134564,-0.3011650945563956,90.51806358210102,23.26253546377779,7.176767028621531,127.72608409827318,95.54785582479109,0.7715422219271291,75.25267629027472
11.532999999999987,0,0,0,-43.81921,172.655654,10.585,A,3,1,13,12.3,10.0,0.346,9.657,-0.051,-14.6,-54.6,8.9,100771,615.2,29.1,0,4.15,40.5,57.71168306867147,14.313492950673911,0.07366090629940081,97.00585092702526,24.454214024938935,7.81627300561544,131.78540969878492,96.49750060808164,-1.6485567395573242,75.20024452415893
11.582999999999998,0,0,0,-43.81921,172.655654,10.585,A,3,1,13,12.3,10.0,0.159,9.325,-0.454,-5.9,-53.7,12.4,100467,630.5,29.1,0,4.12,72.6,84.03899406759822,15.562358805345927,0.47936264117711963,103.69529817828762,25.500420161930343,8.411796389489623,135.79248035164838,96.76603007850383,-4.3853682695680405,75.88093677060796
11.63300000000001,0,0,0,-43.81921,172.655654,10.585,A,3,1,13,12.3,10.0,-0.109,7.932,-0.146,4.6,-54.9,-2.6,100467,630.5,28.4,0,4.14,42.4,84.03899406759822,16.859279090766638,0.9103275321083273,110.5756686617771,26.37639125488632,8.826799247754762,139.42233898786824,96.83157352254756,-7.122967060825444,76.13420098988527
11.682999999999993,0,0,0,-43.81921,172.655654,10.585,A,3,1,13,12.3,10.0,0.304,5.887,-0.17,1.8,-59.8,2.9,100467,644.5,28.6,0,4.11,69.4,84.03899406759822,18.19678709807155,1.3605117854826554,117.61667704524487,27.12392903732844,9.180570887224507,142.2179963509385,97.65069407300611,-9.736577360032086,75.7489255138858
11.733000000000004,0,0,0,-43.81921,172.655654,10.585,A,3,1,13,12.3,10.0,-0.091,3.794,-0.061,0.4,-60.8,3.2,100467,652.5,28.6,0,4.12,67.5,84.03899406759822,19.566261132368098,1.8262647970974795,124.77277475405774,27.655032334520985,9.44954957736422,144.02591200151105,98.28185466486785,-12.651103482944578,75.50119617814572
11.782999999999987,0,0,0,-43.81921,172.655654,10.585,A,3,1,13,12.3,10.0,0.264,1.924,0.136,-16.7,-59.9,-4.1,100467,652.5,28.4,0,4.14,46.1,84.03899406759822,20.958312475671914,2.3025425262146255,131.995395998846,28.027021397650685,9.601559587328124,144.87893779011765,98.93045420264707,-15.61524917618087,75.28760674281115
11.832999999999998,0,0,0,-43.81921,172.655654,10.585,A,3,1,13,12.3,10.0,-0.023,0.044,-0.449,-5.8,-62.9,3.0,100101,656.2,28.7,0,4.14,48.4,115.82140896297976,22.361245625731524,2.785726929198568,139.23885043237206,28.090304604720988,9.725816532025174,144.85923955085912,99.93815858435367,-18.44628908922549,75.79219293821755
11.88300000000001,0,0,0,-43.81921,172.655654,10.585,A,3,1,13,12.3,10.0,0.07,-1.052,-0.226,12.3,-67.2,14.5,100101,652.7,28.7,0,4.1,80.5,115.82140896297976,23.760684452256665,3.273213817414885,146.46426295699206,27.88724845627202,9.773658996623077,144.1572614338751,100.62260739231591,-21.51410718239266,75.81307119916538
11.932999999999993,0,0,0,-43.81921,172.655654,10.585,A,3,1,13,12.3,10.0,-0.045,-1.241,-0.035,11.0,-80.2,10.1,100101,652.7,28.6,0,4.14,49.4,115.82140896297976,25.150404563261688,3.761535797659452,153.64648270999334,27.701555983947852,9.759220213166275,143.1315286862742,100.79619153237375,-24.93014384067953,75.09444198962956
11.983000000000004,0,0,0,-43.81921,172.655654,10.585,A,3,1,13,12.3,10.0,-0.235,-1.277,0.454,-2.5,-69.8,0.4,100101,642.7,28.7,0,4.13,49.8,115.82140896297976,26.533185263749235,4.24563777323796,160.77567697855747,27.609672035541454,9.604858809969656,142.03624205622594,101.45929519158337,-28.911623302185035,74.20887442393798
12.046999999999997,0,0,0,-43.81921,172.655578,12.944999,A,3,1,13,12.0,10.0,-0.011,-1.022,-0.044,-12.7,-74.5,-6.6,99677,630.5,28.7,0,4.14,41.5,152.75824210530575,28.297002905451578,4.8547133382316385,169.82321773947314,27.509629267662792,9.428752596084891,140.69940672242006,102.9013956799881,-33.18597275397461,73.57953122975077
12.090000000000003,0,0,0,-43.81921,172.655578,12.944999,A,3,1,13,12.0,10.0,0.042,-1.521,-0.024,-7.9,-69.8,0.4,99677,618.5,28.8,0,4.11,74.0,152.75824210530575,29.47705757760414,5.259642844458767,175.85305513309152,27.376634553378473,9.405177926104345,139.7581464690908,104.36055675215316,-36.15933463714078,73.26498066363727
12.138000000000005,0,0,0,-43.81921,172.655578,12.944999,A,3,1,13,12.0,10.0,0.064,-1.308,-0.083,-5.4,-68.3,4.0,99677,618.5,28.8,0,4.15,41.9,152.75824210530575,30.78737104904719,5.710745647739857,182.5345854072577,27.219760090079955,9.390772210606988,138.63894828782287,105.59179589007739,-39.35191652301731,72.85623178295727
12.187999999999988,0,0,0,-43.81921,172.655578,12.944999,A,3,1,13,12.0,10.0,0.146,-1.337,0.173,-5.2,-62.1,13.2,99677,606.5,28.8,0,4.14,40.5,152.75824210530575,32.14592554001318,6.1795448439010805,189.43819619229808,27.122419548578275,9.36119563584838,137.5054831138857,106.71312981928475,-42.65155562864638,72.35506404780774
12.238,0,0,0,-43.81921,172.655578,12.944999,A,3,1,13,12.0,10.0,-0.551,-1.421,-0.14,-9.8,-58.7,9.4,99677,593.0,28.8,0,4.12,72.6,152.75824210530575,33.49672630724655,6.644606778037233,196.2852202934173,26.90961114074397,9.241281729593517,136.37548093082108,107.17538432571284,-45.791269207579774,72.25738823074875
12.288000000000011,0,0,0,-43.81921,172.655578,12.944999,A,3,1,13,12.0,10.0,-0.218,-1.211,-0.107,0.9,-62.2,-8.2,99262,593.0,28.7,0,4.14,42.4,189.0344477976825,34.834451763793425,7.103547901529229,203.07707546745456,26.59940712111897,9.116363210082124,135.2987260306081,107.85938608993895,-48.71084426663804,72.20977152519522
12.337999999999994,0,0,0,-43.81921,172.655578,12.944999,A,3,1,13,12.0,10.0,-0.073,-1.187,-0.021,1.7,-68.2,-4.8,99262,580.7,28.7,0,4.17,37.7,189.0344477976825,36.15956768176699,7.557770176525594,209.81581743337975,26.405229597841736,9.052527789778656,134.25095260649155,110.04174721630223,-51.507242993171026,70.45457522716016
12.388000000000005,0,0,0,-43.81921,172.655578,12.944999,A,3,1,13,12.0,10.0,0.063,-1.018,-0.001,6.6,-65.5,-0.7,99262,565.5,28.7,0,4.12,72.6,189.0344477976825,37.47686915246998,8.009403868535824,216.50294110720336,26.286829230266125,9.012819890626398,133.23399434639148,112.43298446184845,-54.5963839196793,68.42259090799885
12.437999999999988,0,0,0,-43.81921,172.655578,12.944999,A,3,1,13,12.0,10.0,-0.122,-1.129,0.297,7.7,-57.8,3.0,99262,565.5,28.7,0,4.14,42.4,189.0344477976825,38.78894948992817,8.457317100388554,223.13955901171647,26.196384268079488,8.903709383488925,132.2307218342237,114.7854426318578,-57.58350969734212,66.10434238879434
12.488,0,0,0,-43.81921,172.655578,12.944999,A,3,1,13,12.0,10.0,-0.156,-1.14,0.145,-9.1,-58.0,8.9,99262,550.7,28.7,0,4.14,39.6,189.0344477976825,40.09556348901358,8.898373865066146,229.7255515679374,26.068175695324783,8.738561203610727,131.20898041455308,116.91592810558578,-60.245457409442,63.85909114689811
12.538000000000011,0,0,0,-43.81921,172.655578,12.944999,A,3,1,13,12.0,10.0,-0.262,-1.116,0.232,-20.9,-62.1,-5.2,98891,536.5,28.9,0,4.15,40.1,221.5686181366345,41.39472058797558,9.331215537769097,236.2607537089968,25.898108263143314,8.57510570450341,130.19910522776325,118.85792701240106,-63.01398388416089,62.56963606575849
12.587999999999994,0,0,0,-43.81921,172.655578,12.944999,A,3,1,13,12.0,10.0,0.091,-1.382,-0.059,-23.0,-75.2,-1.2,98891,536.5,28.4,0,4.11,74.0,221.5686181366345,42.68596344483531,9.757353276351084,242.74370339441552,25.75160601126361,8.470403838781927,129.11888218907472,122.85382739720127,-65.59157735997519,59.9775648095763
12.638000000000005,0,0,0,-43.81921,172.655578,12.944999,A,3,1,13,12.0,10.0,-0.011,-1.187,-0.34,-4.9,-66.6,4.2,98891,520.7,28.4,0,4.16,42.9,221.5686181366345,43.970011113925075,10.181862263239497,249.1718390252134,25.61030075231536,8.509955636750686,128.00654304278106,128.13256661455335,-68.73224708668452,56.22510928483286
12.687999999999988,0,0,0,-43.81921,172.655578,12.944999,A,3,1,13,12.0,10.0,-0.104,-1.117,-0.173,6.0,-67.7,4.9,98891,506.7,28.8,0,4.15,43.3,221.5686181366345,45.24614656562149,10.608690422290495,255.5461480048037,25.435117315558458,8.563170725295077,126.96581614091937,133.4439989171591,-71.52403766517438,51.43788860388065
12.738,0,0,0,-43.81921,172.655578,12.944999,A,3,1,13,12.0,10.0,-0.408,-1.096,0.055,13.0,-65.0,-5.4,98891,506.7,28.9,0,4.13,64.3,221.5686181366345,46.512028683360775,11.035534701221275,261.8695706015719,25.200167394001483,8.510600431932207,125.97108772975263,140.55571103546112,-74.17961653819647,44.30458419172991
12.788000000000011,0,0,0,-43.81921,172.655578,12.944999,A,3,1,13,12.0,10.0,-0.139,-1.083,0.057,-0.9,-57.0,-13.0,98522,491.2,28.9,0,4.13,52.6,254.02558484231767,47.766262514127135,11.458565309275453,268.14357888771514,24.96918583664154,8.410623890231111,124.98924371591848,151.06904695028337,-75.99212801739539,33.45711073097013
12.837999999999994,0,0,0,-43.81921,172.655578,12.944999,A,3,1,13,12.0,10.0,0.076,-1.074,0.01,-6.5,-55.4,-1.7,98522,478.7,28.7,0,4.13,48.0,254.02558484231767,49.011653863318394,11.877408900851135,274.36799934021826,24.846468131025848,8.343119772801863,123.98757438429053,163.0632492234342,-76.71731344360876,21.808687902622943
12.888000000000005,0,0,0,-43.81921,172.655578,12.944999,A,3,1,13,12.0,10.0,0.326,-1.087,0.121,-3.5,-53.9,6.3,98522,478.7,28.7,0,4.14,48.4,254.02558484231767,50.25357775497408,12.292577665499715,280.5417644614178,24.830487535190443,8.26363081313758,122.96303046363577,175.035539388072,-77.38429576433633,10.428376430082144
12.937999999999988,0,0,0,-43.81921,172.655578,12.944999,A,3,1,13,12.0,10.0,0.025,-0.993,-0.019,-6.0,-54.3,13.9,98522,465.7,28.7,0,4.14,46.6,254.02558484231767,51.49452203531164,12.703913027084377,286.66483896850343,24.807283678328908,8.189783650254498,121.95994981987249,-172.55883960601912,-77.88758333532554,-1.5519625727081636
12.988,0,0,0,-43.81921,172.655578,12.944999,A,3,1,13,12.0,10.0,-0.021,-0.957,-0.062,-4.8,-60.7,11.3,98522,453.2,28.3,0,4.13,49.4,254.02558484231767,52.73248782580539,13.112675189007536,292.7388654844349,24.711347941409866,8.160702826668118,121.00111081732925,-159.1713892526142,-78.18206773422443,-14.386314648509478
13.050000000000011,0,0,0,-43.81921,172.655487,12.472999,A,3,1,12,11.8,10.0,-0.329,-0.973,0.242,-3.0,-54.1,4.9,98140,453.2,28.8,0,4.15,41.9,287.72988434834025,54.25763324879995,13.61544587574273,300.2051326481431,24.48689151001792,8.057706422851124,119.84621704417916,-141.58567063306404,-77.33814233576472,-31.324783687379078
13.094999999999999,0,0,0,-43.81921,172.655487,12.472999,A,3,1,12,11.8,10.0,-0.239,-0.971,-0.081,-3.7,-55.3,-3.1,98140,442.0,28.5,0,4.11,74.5,287.72988434834025,55.35492998927439,13.976605722059112,305.5794270083111,24.281852511081773,7.993842302325901,119.01131007446561,-132.5045924605185,-76.08412320161253,-40.060852410852014
13.141999999999996,0,0,0,-43.81921,172.655487,12.472999,A,3,1,12,11.8,10.0,-0.072,-1.096,-0.224,-3.2,-56.5,-4.6,98140,430.0,28.5,0,4.15,41.9,287.72988434834025,56.49277219602126,14.352959369106278,311.1512159178668,24.13696479729859,8.021206508192789,118.08609033217668,-125.60797425413067,-74.18522858523123,-46.58724640746529
13.192000000000007,0,0,0,-43.81921,172.655487,12.472999,A,3,1,12,11.8,10.0,0.023,-0.865,-0.01,1.2,-63.5,-1.6,98140,430.0,28.5,0,4.15,42.4,287.72988434834025,57.69733860888533,14.754081236479578,317.031358511847,24.045691717253476,8.023668186735565,117.11961342697664,-119.96338538993261,-71.88894079186218,-51.86287693010984
13.24199999999999,0,0,0,-43.81921,172.655487,12.472999,A,3,1,12,11.8,10.0,-0.036,-0.925,-0.021,2.5,-57.3,1.0,98140,418.7,28.2,0,4.12,69.8,287.72988434834025,58.8974888117091,15.154217137102648,322.8643549399391,23.960316395713768,7.981767838192683,116.20024369678825,-114.67645397879865,-69.25629384216352,-56.94565842037968
13.292000000000002,0,0,0,-43.81921,172.655487,12.472999,A,3,1,12,11.8,10.0,-0.043,-0.901,0.092,-1.2,-56.9,0.6,97796,406.2,28.2,0,4.14,45.7,318.17242654023653,60.092743615002064,15.551813394126542,328.65133062628644,23.84987573599393,7.9220824427594545,115.2787837570512,-110.66867729337869,-66.8280048831024,-60.82391571139975
13.341999999999985,0,0,0,-43.81921,172.655487,12.472999,A,3,1,12,11.8,10.0,-0.019,-0.902,0.103,-3.8,-56.0,0.7,97796,406.2,28.9,0,4.14,41.5,318.17242654023653,61.28232889545032,15.945737917608122,334.392485725623,23.73353548195242,7.834898496509128,114.3674202164893,-107.46294363664299,-64.32431528353416,-63.718762474086965
13.391999999999996,0,0,0,-43.81921,172.655487,12.472999,A,3,1,12,11.8,10.0,-0.051,-0.917,0.028,-3.7,-55.8,2.9,97796,396.7,28.7,0,4.15,42.9,318.17242654023653,62.46615963898901,16.33569044535395,340.0879160785785,23.61969425958437,7.763202613320509,113.44979390167823,-104.8176827873191,-61.80727047280077,-65.92290159601781
13.442000000000007,0,0,0,-43.81921,172.655487,12.472999,A,3,1,12,11.8,10.0,-0.157,-0.901,0.029,-3.0,-55.0,2.4,97796,386.5,28.7,0,4.14,41.9,318.17242654023653,63.64373705261298,16.722876260667288,345.73748663601356,23.483402285363574,7.724229999209398,112.53302839567466,-102.37107683437277,-59.30056732771843,-67.90420196638732
13.49199999999999,0,0,0,-43.81921,172.655487,12.472999,A,3,1,12,11.8,10.0,-0.137,-0.882,0.062,-3.6,-53.8,1.6,97796,386.5,28.7,0,4.14,43.3,318.17242654023653,64.81399948827233,17.10825032034739,351.3415202448999,23.327095141026785,7.690732387999928,111.628315959857,-100.32023197156296,-56.78558895248888,-69.5298668916787
13.542000000000002,0,0,0,-43.81921,172.655487,12.472999,A,3,1,12,11.8,10.0,-0.042,-0.729,-0.038,-4.3,-55.9,-2.0,97505,376.2,29.2,0,4.14,41.9,343.9924664927336,65.97747970178169,17.49205924887569,356.9011816008517,23.212113399337223,7.661624753128517,110.7581382781639,-98.61698572070456,-54.28702934134825,-70.78969690607923
13.591999999999985,0,0,0,-43.81921,172.655487,12.472999,A,3,1,12,11.8,10.0,0.003,-0.747,-0.042,-2.4,-56.2,5.5,97505,367.5,29.2,0,4.11,69.8,343.9924664927336,67.13641468036265,17.874547624199227,362.4179287137199,23.145285743916684,7.6379102598182085,109.91174623663827,-97.32078104099537,-51.6139081437068,-71.64467698063469
13.641999999999996,0,0,0,-43.81921,172.655487,12.472999,A,3,1,12,11.8,10.0,-0.099,-1.116,-0.006,0.2,-57.0,8.5,97505,367.5,28.6,0,4.14,38.2,343.9924664927336,68.29119152165505,18.255610799591224,367.8901097360789,23.04578790776912,7.604616755858186,108.97549465767268,-95.60772647416616,-49.026845768403184,-72.87862762527566
13.692000000000007,0,0,0,-43.81921,172.655487,12.472999,A,3,1,12,11.8,10.0,-0.108,-0.824,0.116,-2.0,-56.0,5.8,97505,358.2,29.2,0,4.14,44.3,343.9924664927336,69.43982538595165,18.63466881656959,373.3152638380602,22.89956666408423,7.557703923273022,108.03066942153013,-93.83846052141686,-46.41983989461746,-74.23326470206683
13.74199999999999,0,0,0,-43.81921,172.655487,12.472999,A,3,1,12,11.8,10.0,-0.07,-0.803,0.004,-4.9,-53.6,3.8,97505,350.5,29.2,0,4.11,70.3,343.9924664927336,70.5816802349618,19.011455103987572,378.69502858988244,22.77462729633739,7.513747573451369,107.15992065143217,-92.42922702319515,-43.80226162931009,-75.16712041758174
13.792000000000002,0,0,0,-43.81921,172.655487,12.472999,A,3,1,12,11.8,10.0,-0.172,-0.784,0.048,-3.2,-52.6,-1.2,97175,350.5,28.5,0,4.12,73.6,373.34853524288206,71.71738488838355,19.38668894345424,384.0313947461969,22.65355884052254,7.495606005211944,106.29472560109728,-91.29804951146185,-41.26300301712521,-75.72217128185139
13.841999999999985,0,0,0,-43.81921,172.655487,12.472999,A,3,1,12,11.8,10.0,-0.081,-0.757,0.002,-4.6,-50.5,-2.4,97175,341.0,28.1,0,4.14,44.3,373.34853524288206,72.8470678559144,19.761118666280183,389.32476963251327,22.533759860726796,7.481582907830909,105.44026985162964,-90.56846177150302,-38.70488634052272,-76.06626726386084
13.891999999999996,0,0,0,-43.81921,172.655487,12.472999,A,3,1,12,11.8,10.0,-0.211,-0.879,0.275,-1.5,-51.0,1.8,97175,333.0,28.1,0,4.14,47.5,373.34853524288206,73.96944170705716,20.13423664195191,394.57517770042625,22.361194184973154,7.443136119034896,104.57605286484097,-89.98337382308473,-36.23187928849933,-76.2274371197652
13.942000000000007,0,0,0,-43.81921,172.655487,12.472999,A,3,1,12,11.8,10.0,-0.109,-0.749,0.038,-4.6,-51.2,-1.3,97175,333.0,28.8,0,4.11,75.9,373.34853524288206,75.08293801320423,20.505482731514928,399.7824679957858,22.17865806089979,7.406707463482396,103.71555894949387,-89.17551085378435,-33.78144847086253,-76.65115842700193
13.99199999999999,0,0,0,-43.81921,172.655487,12.472999,A,3,1,12,11.8,10.0,-0.039,-0.74,-0.023,-2.7,-50.9,-1.2,97175,326.0,28.7,0,4.14,49.8,373.34853524288206,76.18953336542995,20.875218024538054,404.9471250984069,22.085156028144358,7.382704257447746,102.87072515542141,-88.58074131002513,-31.28255832634381,-76.77624834951537
14.056000000000012,0,0,0,-43.819206,172.65541,12.444,A,3,1,10,11.5,10.0,-0.04,-0.896,-0.039,2.5,-53.4,-1.4,96881,318.7,28.7,0,4.14,37.7,399.5701967039608,77.59987724345085,21.346343901816677,411.49463928230256,21.988090159993842,7.339979407504299,101.73909309124979,-87.85135218960303,-28.102439429855117,-77.00989788905274
14.097000000000008,0,0,0,-43.819206,172.65541,12.444,A,3,1,10,11.5,10.0,-0.039,-0.702,0.006,2.0,-52.0,3.3,96881,318.7,28.9,0,4.11,72.2,399.5701967039608,78.50005329205554,21.64670147057697,415.6512577990157,21.922936601213827,7.311609312511216,101.0227857728206,-87.39047956173413,-25.961133982840085,-77.35072775820164
14.145999999999987,0,0,0,-43.819206,172.65541,12.444,A,3,1,10,11.5,10.0,-0.039,-0.72,0.066,0.7,-51.3,-2.8,96881,311.5,28.9,0,4.14,39.6,399.5701967039608,79.5720676271184,22.00404351102684,420.58154261165083,21.8327505442288,7.273780093612332,100.21332902870358,-86.63837634545288,-23.515314395471925,-77.797996885312
14.195999999999998,0,0,0,-43.819206,172.65541,12.444,A,3,1,10,11.5,10.0,0.023,-0.702,0.091,-3.5,-46.5,3.8,96881,304.7,28.9,0,4.14,40.5,399.5701967039608,80.66109585664063,22.36625687220023,425.5716939077036,21.728378636650127,7.214754353319933,99.39272281336221,-86.23116627830007,-20.98591741565598,-78.02239062872634
14.24600000000001,0,0,0,-43.819206,172.65541,12.444,A,3,1,10,11.5,10.0,-0.024,-0.681,0.072,-3.7,-44.1,4.5,96603,298.0,28.8,0,4.12,72.6,424.4241649861372,81.74494846296956,22.725491851541886,430.5210570897674,21.625725616497355,7.154644820343052,98.58180446914412,-85.54734157244188,-18.758394493943502,-78.11504655094402
14.295999999999992,0,0,0,-43.819206,172.65541,12.444,A,3,1,10,11.5,10.0,-0.003,-0.663,0.113,-5.1,-42.7,7.0,96603,298.0,28.9,0,4.15,38.2,424.4241649861372,82.82350831485876,23.08187884079744,435.43013341385586,21.516668459085032,7.10083474988398,97.7812484944607,-84.86523524865176,-16.654617713714423,-78.1727025322511
14.346000000000004,0,0,0,-43.819206,172.65541,12.444,A,3,1,10,11.5,10.0,-0.09,-0.666,0.042,-4.1,-44.5,6.2,96603,291.5,28.9,0,4.11,68.0,424.4241649861372,83.89669217061623,23.436010810017585,440.29919401372933,21.410685771204506,7.064444018918598,96.9811755004338,-84.07924005128402,-14.644671421694554,-78.16492610462095
14.395999999999987,0,0,0,-43.819206,172.65541,12.444,A,3,1,10,11.5,10.0,-0.238,-0.652,-0.001,-4.0,-45.9,1.9,96603,285.0,28.5,0,4.15,43.3,424.4241649861372,84.96491916159754,23.78986414963202,445.12800267630985,21.318393868062255,7.089689565663703,96.17117100285239,-83.32188455933026,-12.538463975560493,-78.17309862274011
14.445999999999998,0,0,0,-43.819206,172.65541,12.444,A,3,1,10,11.5,10.0,-0.05,-0.622,0.042,-1.3,-48.1,-2.8,96603,285.0,28.6,0,4.15,37.7,424.4241649861372,86.02864971942637,24.14478146032035,449.91659623090266,21.230828445081354,7.10700286186618,95.372571180816,-82.76992974033416,-10.319927654720527,-78.11765570946002
14.49600000000001,0,0,0,-43.819206,172.65541,12.444,A,3,1,10,11.5,10.0,0.221,-0.662,0.218,-4.6,-46.1,2.1,96327,278.7,28.6,0,4.14,42.4,449.1566855700208,87.08717865136613,24.497670368068913,454.6658425098435,21.110328832499395,7.008553448073154,94.59727997677521,-82.43133186841416,-7.945614601641716,-78.14157265024681
14.545999999999992,0,0,0,-43.819206,172.65541,12.444,A,3,1,10,11.5,10.0,-0.01,-0.628,0.123,-6.1,-44.4,3.5,96327,273.2,29.0,0,4.14,40.1,449.1566855700208,88.13922223634151,24.845383404473573,459.3764278749187,20.971414566529855,6.899968008117915,93.82613462629774,-81.87187191407722,-5.720007285258249,-78.013308353967
14.596000000000004,0,0,0,-43.819206,172.65541,12.444,A,3,1,10,11.5,10.0,-0.088,-0.621,-0.021,-5.4,-45.4,2.4,96327,273.2,28.4,0,4.11,70.8,449.1566855700208,89.18554220991004,25.189697709478676,464.04812525832983,20.881384376201588,6.872604192083124,93.04176071010424,-81.2569652101759,-3.5938472246347724,-77.79340378368465
14.645999999999987,0,0,0,-43.819206,172.65541,12.444,A,3,1,10,11.5,10.0,-0.043,-0.726,-0.015,-2.0,-48.0,6.6,96327,266.5,28.4,0,4.17,41.0,449.1566855700208,90.22802270866927,25.53277718688124,468.67981625864434,20.817835574182112,6.850574904024152,92.22587930253896,-80.67864378025767,-1.4094415469423003,-77.58381356664584
14.695999999999998,0,0,0,-43.819206,172.65541,12.444,A,3,1,10,11.5,10.0,-0.01,-0.613,0.018,-2.8,-56.2,0.0,96327,261.7,28.9,0,4.14,40.5,449.1566855700208,91.26711871274142,25.87426719355219,473.27089147935044,20.746004588694273,6.8090253628107495,91.41712952566435,-79.86268775922198,0.8552512266607974,-77.52292258561279
14.74600000000001,0,0,0,-43.819206,172.65541,12.444,A,3,1,10,11.5,10.0,-0.043,-0.597,0.135,-0.3,-50.7,-0.9,96057,261.7,28.7,0,4.14,37.7,473.4071290018821,92.30190995875688,26.21387424565043,477.82247746434047,20.645645251914587,6.775256721115858,90.64630987389614,-79.27567479573433,3.590246025579648,-77.39531093986692
14.795999999999992,0,0,0,-43.819206,172.65541,12.444,A,3,1,10,11.5,10.0,-0.007,-0.58,0.064,-7.7,-43.8,7.3,96057,256.0,28.7,0,4.13,48.4,473.4071290018821,93.33145284944415,26.55186480846137,482.33577260832703,20.53607037559041,6.744365791326366,89.88549588562714,-78.78774494229155,6.0660801772638875,-77.37439524243804
14.846000000000004,0,0,0,-43.819206,172.65541,12.444,A,3,1,10,11.5,10.0,-0.023,-0.556,0.003,-4.5,-45.1,6.8,96057,250.7,28.6,0,4.11,68.9,473.4071290018821,94.35634207435855,26.888138443939113,486.8111311712634,20.459498620976188,6.7065796277801795,89.1288466317878,-77.96206325799265,8.112494377237615,-76.9226381076775
14.895999999999987,0,0,0,-43.819206,172.65541,12.444,A,3,1,10,11.5,10.0,-0.051,-0.557,0.138,-1.7,-44.9,6.3,96057,250.7,28.3,0,4.15,48.9,473.4071290018821,95.37701851694277,27.22290148049403,491.24882928311325,20.36755908240668,6.683941834421107,88.37907784226701,-77.12767781280597,10.222306742487726,-76.59984161837951
14.945999999999998,0,0,0,-43.819206,172.65541,12.444,A,3,1,10,11.5,10.0,-0.24,-0.54,0.156,-5.2,-44.9,4.7,96057,246.0,28.3,0,4.13,76.8,473.4071290018821,96.39250429582341,27.558020825454896,495.6490003809555,20.251872072809608,6.720831964010501,87.62776607138183,-76.30489830040308,12.324381425409124,-76.38912884964333
14.99600000000001,0,0,0,-43.819206,172.65541,12.444,A,3,1,10,11.5,10.0,-0.14,-0.542,0.012,-7.8,-44.9,-3.5,95814,241.2,28.4,0,4.14,45.2,495.2797652652253,97.40310451572039,27.89531769018168,500.0114188693281,20.172136723060092,6.771042625057884,86.86897346348209,-75.54379038283496,14.441207397400035,-75.98809584704199
15.060000000000002,0,0,0,-43.819198,172.655334,12.444,A,3,1,10,11.3,10.0,-0.012,-0.547,0.0,-4.2,-45.9,-3.7,95814,241.2,29.1,0,4.14,39.6,495.2797652652253,98.69178872598805,28.328151902644507,505.54014265463525,20.099244847808684,6.755026514406874,85.90364482738406,-75.06293243496677,17.271863300349843,-75.40248022729098
15.100999999999999,0,0,0,-43.819198,172.655334,12.444,A,3,1,10,11.3,10.0,-0.037,-0.515,-0.007,-2.4,-46.0,-2.3,95814,237.7,29.1,0,4.11,73.6,495.2797652652253,99.51488936103068,28.60451244371779,509.04970900669247,20.05200564207908,6.725975489168965,85.29471380956704,-74.73448121333676,19.125011021546452,-75.1565212357168
15.150000000000006,0,0,0,-43.819198,172.655334,12.444,A,3,1,10,11.3,10.0,-0.019,-0.511,-0.006,2.3,-47.9,-2.1,95814,233.2,28.5,0,4.15,38.7,495.2797652652253,100.49615121749304,28.933311792294372,513.2115040294801,19.99949870331754,6.694406085383584,84.57447079398666,-74.25494394746381,21.325058256692913,-74.90756866525432
15.199999999999989,0,0,0,-43.819198,172.655334,12.444,A,3,1,10,11.3,10.0,0.177,-0.529,0.158,-4.1,-40.1,7.2,95814,233.2,28.7,0,4.15,44.3,495.2797652652253,101.49336958162357,29.266509827245706,517.4222476926572,19.889235861917197,6.633515312674345,83.85527573315169,-73.71426234196211,23.65782739442238,-74.85085116224157
15.25,0,0,0,-43.819198,172.655334,12.444,A,3,1,10,11.3,10.0,-0.04,-0.508,0.133,-4.6,-40.3,7.9,95553,229.2,28.7,0,4.17,39.6,518.8226861033615,102.48439512885356,29.5971672368054,521.5971327332742,19.75178602727384,6.5927810697104565,83.14012589149353,-72.77235988747016,25.488379097837104,-74.28926222645244
15.300000000000011,0,0,0,-43.819198,172.655334,12.444,A,3,1,10,11.3,10.0,-0.065,-0.526,-0.062,-1.4,-41.0,5.3,95553,225.2,28.8,0,4.14,42.4,518.8226861033615,103.47031570962511,29.926432917130725,525.7357149103602,19.685037203579345,6.577846143299569,82.4031611919114,-71.75389413264271,27.309736326706457,-73.64152698605311
15.349999999999994,0,0,0,-43.819198,172.655334,12.444,A,3,1,10,11.3,10.0,-0.039,-0.502,-0.027,2.0,-39.5,1.9,95553,225.2,29.1,0,4.16,37.7,518.8226861033615,104.45373979251957,30.254445423551648,529.8373610574511,19.651926112212184,6.542654113541806,81.66268469177764,-70.828168203038,29.192739236020255,-73.16844056358266
15.400000000000006,0,0,0,-43.819198,172.655334,12.444,A,3,1,10,11.3,10.0,-0.015,-0.477,-0.023,4.8,-39.6,1.5,95553,222.2,29.1,0,4.13,42.9,518.8226861033615,105.43523600473006,30.58058621325667,533.9023912928595,19.607922376198594,6.502977474656123,80.93852472452251,-70.0851713803861,31.048469635460766,-72.93069771716759
15.449999999999989,0,0,0,-43.819198,172.655334,12.444,A,3,1,10,11.3,10.0,0.007,-0.573,0.125,8.2,-39.1,1.1,95553,218.2,28.5,0,4.11,71.2,518.8226861033615,106.41354593537959,30.904953766035934,537.9309722007911,19.524474849796015,6.471724636518868,80.20471159279427,-69.34150118291784,32.912854770448206,-72.81193083252198
15.5,0,0,0,-43.819198,172.655334,12.444,A,3,1,10,11.3,10.0,-0.039,-0.474,0.153,2.4,-37.6,3.1,95333,218.2,29.1,0,4.16,41.5,538.7077721496632,107.38695223363071,31.228501668273662,541.9229195050882,19.41177708023971,6.470191452987304,79.47318057905608,-68.61240816734495,34.75881551109354,-72.85106407615879
15.550000000000011,0,0,0,-43.819198,172.655334,12.444,A,3,1,10,11.3,10.0,0.031,-0.465,0.125,-3.7,-36.2,5.2,95333,215.0,29.1,0,4.14,38.7,538.7077721496632,108.35484399152595,31.552001826243895,545.878941724525,19.30389323556121,6.469814865819101,78.76770819837898,-67.77145735664323,36.50188381653734,-72.51626462130497
15.599999999999994,0,0,0,-43.819198,172.655334,12.444,A,3,1,10,11.3,10.0,-0.058,-0.462,0.063,-7.4,-35.8,6.8,95333,211.5,29.0,0,4.11,73.1,538.7077721496632,109.31787967169281,31.875237016225867,549.799677830683,19.217533971126148,6.459592733464237,78.061736047994,-66.79269469420034,38.13964971346605,-71.77295603795372
15.650000000000006,0,0,0,-43.819198,172.655334,12.444,A,3,1,10,11.3,10.0,0.023,-0.44,0.056,-6.5,-36.2,6.0,95333,211.5,28.9,0,4.15,40.1,538.7077721496632,110.27696225748353,32.19777581539203,553.6852265891611,19.145769460493913,6.441959233179349,77.36021429109347,-65.67036074575194,39.720465707169396,-70.7327959000296
15.699999999999989,0,0,0,-43.819198,172.655334,12.444,A,3,1,10,11.3,10.0,-0.024,-0.446,0.008,-5.9,-36.3,4.5,95333,208.5,28.9,0,4.14,41.0,538.7077721496632,111.23257230025705,32.51907441447753,557.5358461404071,19.0786322504597,6.409984730245111,76.66456775880245,-64.52501500072871,41.31757913590644,-69.69874029369139
15.75,0,0,0,-43.819198,172.655334,12.444,A,3,1,10,11.3,10.0,-0.037,-0.433,-0.04,-4.0,-35.1,4.0,95122,205.2,28.8,0,4.14,45.2,557.8143167578213,112.18546463222152,32.83861855793894,561.3515854735178,19.037061028110507,6.371781008208396,75.96500556559323,-63.40498848555722,42.930211613960196,-68.68757311895428
15.800000000000011,0,0,0,-43.819198,172.655334,12.444,A,3,1,10,11.3,10.0,0.003,-0.428,-0.019,-2.3,-35.2,6.9,95122,205.2,28.6,0,4.14,48.0,557.8143167578213,113.13628330851267,33.156043471548045,565.1325049374811,18.995686023526822,6.325215536152728,75.27177299290493,-62.28088094330794,44.482029265688546,-67.74593809443861
15.849999999999994,0,0,0,-43.819198,172.655334,12.444,A,3,1,10,11.3,10.0,-0.126,-0.432,-0.12,0.5,-35.5,1.6,95122,201.7,28.6,0,4.14,45.2,557.8143167578213,114.08571398252705,33.47106883662846,568.878581811815,18.981540937061258,6.275799067068251,74.57130198050164,-60.896235825873426,45.967879821668724,-66.6830652828946
15.913000000000011,0,0,0,-43.819183,172.655258,12.394,A,3,1,5,11.2,10.0,-0.089,-0.434,-0.133,1.3,-38.2,6.0,95122,199.2,28.9,0,4.11,68.0,557.8143167578213,115.28228410435106,33.8640851059184,573.5484157716932,19.00481213670668,6.200907894513681,73.67739515844816,-59.48403756564455,47.97002906812812,-65.72639312043857
15.955999999999989,0,0,0,-43.819183,172.655258,12.394,A,3,1,5,11.2,10.0,-0.044,-0.401,0.047,2.9,-36.7,5.4,95122,199.2,28.4,0,4.11,83.8,557.8143167578213,116.09913480076129,34.12999733974298,576.7036993256067,18.988243510300133,6.1671029810543825,73.07997944225797,-58.12038898334553,49.35183871121966,-64.78859056064574
16.00399999999999,0,0,0,-43.819183,172.655258,12.394,A,3,1,5,11.2,10.0,-0.021,-0.418,0.005,6.6,-34.1,6.5,94904,196.0,28.4,0,4.15,41.5,577.5908067696543,117.00938676063426,34.42550204237483,580.1957619883942,18.93892148440533,6.145592961938909,72.4226315072125,-56.60219532198626,50.82480113259156,-63.796915015531646
16.054000000000002,0,0,0,-43.819183,172.655258,12.394,A,3,1,5,11.2,10.0,0.012,-0.389,0.122,-5.0,-30.2,7.8,94904,194.0,28.7,0,4.14,36.8,577.5908067696543,117.95456310589307,34.73241359910153,583.7999485302853,18.868132325938884,6.130869307126118,71.74483016839581,-54.94540044619064,52.20105436383026,-62.86509343171526
16.103999999999985,0,0,0,-43.819183,172.655258,12.394,A,3,1,5,11.2,10.0,-0.111,-0.395,-0.055,-2.3,-29.3,7.0,94904,194.0,28.8,0,4.11,72.2,577.5908067696543,118.8968604820309,35.038544203414816,587.370201677036,18.82376271958704,6.114354865409712,71.06529570168178,-53.247659221115825,53.35178323348704,-61.29827226320716
16.153999999999996,0,0,0,-43.819183,172.655258,12.394,A,3,1,5,11.2,10.0,-0.142,-0.391,-0.054,1.5,-33.4,2.3,94904,191.5,28.9,0,4.15,38.2,577.5908067696543,119.83824648291252,35.34336401444794,590.9061735487627,18.831677315669406,6.0784375759126394,70.37357916735311,-51.550251540438765,54.45552755953715,-59.84678384444417
16.204000000000008,0,0,0,-43.819183,172.655258,12.394,A,3,1,5,11.2,10.0,-0.043,-0.364,0.0,5.6,-37.7,-1.6,94904,189.5,28.9,0,4.14,42.9,577.5908067696543,120.77956555690801,35.646495215871184,594.4078784114662,18.821085644141256,6.046810481014118,69.69461534075457,-49.925782508451306,55.83197143796907,-58.6237998981359
16.25399999999999,0,0,0,-43.819183,172.655258,12.394,A,3,1,5,11.2,10.0,-0.017,-0.367,0.105,4.8,-37.6,0.1,94710,189.5,28.9,0,4.14,41.5,595.2210254123996,121.71932751822638,35.948565278115254,597.875988595456,18.7693928086061,6.035992008752681,69.02979201888175,-48.281799699641525,57.475211471979044,-57.565470069112585
16.304000000000002,0,0,0,-43.819183,172.655258,12.394,A,3,1,5,11.2,10.0,-0.006,-0.366,0.142,1.8,-35.3,1.0,94710,187.0,28.3,0,4.12,71.2,595.2210254123996,122.65595712198848,36.25075648022968,601.3108507075955,18.695791341869484,6.051656075821717,68.36469246666782,-46.36837715114379,59.04851239850733,-56.21314482680581
16.353999999999985,0,0,0,-43.819183,172.655258,12.394,A,3,1,5,11.2,10.0,-0.018,-0.363,0.077,-1.9,-33.7,3.7,94710,184.0,28.3,0,4.16,42.4,595.2210254123996,123.58903068897189,36.55357641880696,604.7124794642393,18.627151337479546,6.061141467273588,67.70045779913067,-44.34532934380403,60.47497279896963,-54.590336001389964
16.403999999999996,0,0,0,-43.819183,172.655258,12.394,A,3,1,5,11.2,10.0,-0.037,-0.355,0.072,-5.0,-30.7,6.4,94710,184.0,28.8,0,4.14,41.9,595.2210254123996,124.51906061483014,36.85656260102665,608.0809237876363,18.574045696841768,6.058305821511311,67.03731513671651,-42.016237505110304,61.72308514944639,-52.491293330396566
16.454000000000008,0,0,0,-43.819183,172.655258,12.394,A,3,1,5,11.2,10.0,-0.006,-0.348,0.05,-5.0,-31.7,7.3,94523,182.2,28.5,0,4.11,63.8,612.242802159216,125.44646114597906,37.15926014510824,611.4163395459317,18.521975549106823,6.04959594174945,66.3793151950695,-39.471489773649395,62.72390640699894,-50.02476745512223
16.50399999999999,0,0,0,-43.819183,172.655258,12.394,A,3,1,5,11.2,10.0,-0.097,-0.333,-0.029,-4.5,-32.9,5.7,94523,179.7,28.5,0,4.16,41.0,612.242802159216,126.37182816062682,37.4610735519016,614.7189262659856,18.49270503681614,6.0229403299889075,65.72415360713418,-36.59408520409758,63.67719948316286,-47.24138814330319
16.554000000000002,0,0,0,-43.819183,172.655258,12.394,A,3,1,5,11.2,10.0,-0.062,-0.337,-0.014,-1.4,-34.5,2.6,94523,179.7,28.8,0,4.15,40.1,612.242802159216,127.29617111470272,37.761290855719686,617.9887481286876,18.481013126211163,5.985751822731862,65.06872090091518,-33.54661613319676,64.66345182347116,-44.308319745252504
16.603999999999985,0,0,0,-43.819183,172.655258,12.394,A,3,1,5,11.2,10.0,-0.075,-0.323,-0.019,2.4,-36.2,0.9,94523,177.7,28.9,0,4.14,41.5,612.242802159216,128.21979389937928,38.05966093985272,621.2259019054179,18.463898260863566,5.949051542593405,64.41743016834411,-30.376110646456333,65.74880320286506,-41.39496789907547
16.653999999999996,0,0,0,-43.819183,172.655258,12.394,A,3,1,5,11.2,10.0,0.018,-0.327,-0.034,5.5,-35.1,1.3,94523,176.0,28.9,0,4.16,40.5,612.242802159216,129.1421567787176,38.35597688504444,624.4307452176522,18.430616912660543,5.9035862650728586,63.77630232099868,-26.90394845443998,66.88364857568263,-38.370092840609885
16.704000000000008,0,0,0,-43.819183,172.655258,12.394,A,3,1,5,11.2,10.0,-0.064,-0.316,0.041,5.7,-34.2,0.7,94339,176.0,28.8,0,4.16,42.4,629.0181383049475,130.06272858718535,38.65032882806494,627.6035431780609,18.392255426040247,5.870491455744518,63.13561609532284,-23.2071120406444,67.89337591365812,-35.26727447946121
16.75399999999999,0,0,0,-43.819183,172.655258,12.394,A,3,1,5,11.2,10.0,-0.041,-0.311,0.08,3.5,-32.7,0.6,94339,174.0,28.9,0,4.14,44.7,629.0181383049475,130.98160645575163,38.94374965134876,630.7441543742392,18.362859316623087,5.866341475612126,62.48883175185057,-19.353733965153953,68.82270847539783,-32.00539378630663
16.804000000000002,0,0,0,-43.819183,172.655258,12.394,A,3,1,5,11.2,10.0,0.0,-0.314,0.028,3.0,-32.0,2.6,94339,171.7,28.9,0,4.11,77.3,629.0181383049475,131.89868374743864,39.23681459722817,633.8525855390599,18.320232350849164,5.856256359561415,61.848414840948934,-15.388815228940269,69.63316148627256,-28.508083021888506
16.853999999999985,0,0,0,-43.819183,172.655258,12.394,A,3,1,5,11.2,10.0,0.009,-0.312,0.042,2.5,-31.3,2.3,94339,171.7,28.7,0,4.14,44.7,629.0181383049475,132.81339768242876,39.529103486928065,636.9291347321644,18.26832504876776,5.83529922843855,61.21355288327416,-11.107176721452168,70.24689872328923,-24.671077949335075
16.918000000000006,0,0,0,-43.819175,172.655181,12.21,A,3,1,5,11.1,10.0,-0.072,-0.296,0.036,4.9,-30.3,1.8,94339,169.2,28.6,0,4.15,42.4,629.0181383049475,133.9811815931286,39.90182836300305,640.8207114750534,18.22492216059033,5.812353148900704,60.39822033196536,-5.435825732759961,70.8840632642459,-19.527308460186624
16.958,0,0,0,-43.819175,172.655181,12.21,A,3,1,5,11.1,10.0,-0.048,-0.292,0.092,4.4,-29.6,1.9,94168,167.7,28.6,0,4.11,67.1,644.6320292069314,134.70985964265782,40.134240504403756,643.2264011775939,18.2089803158771,5.808253921137161,59.886264795082184,-1.862887371407639,71.20233846069414,-16.37215353159716
17.007000000000005,0,0,0,-43.819175,172.655181,12.21,A,3,1,5,11.1,10.0,0.023,-0.298,0.15,1.4,-28.2,4.3,94168,167.7,28.3,0,4.14,41.5,644.6320292069314,135.60104918072392,40.41934183548504,646.1454672119605,18.166102870489468,5.828535102587225,59.25928762803328,2.5495116778423044,71.49036703331352,-12.44137457284237
17.056999999999988,0,0,0,-43.819175,172.655181,12.21,A,3,1,5,11.1,10.0,0.038,-0.289,0.104,-4.1,-26.3,7.5,94168,165.7,28.9,0,4.14,39.1,644.6320292069314,136.50778175672764,40.71135574795226,649.0925963739215,18.103200169671698,5.85202139610557,58.625878850448544,6.997866331198863,71.55174447529986,-8.327324757187759
17.107,0,0,0,-43.819175,172.655181,12.21,A,3,1,5,11.1,10.0,-0.083,-0.284,0.022,-8.0,-25.1,9.1,94168,164.7,28.9,0,4.14,40.5,644.6320292069314,137.41205539499234,41.00377660038093,652.0081263331126,18.067745360907537,5.844812701038626,57.99531951716851,11.189291400580693,71.3419001322472,-4.183709434082651
17.15700000000001,0,0,0,-43.819175,172.655181,12.21,A,3,1,5,11.1,10.0,-0.119,-0.272,0.069,-8.0,-26.6,6.3,94168,164.7,29.1,0,4.11,66.6,644.6320292069314,138.31550613568493,41.295602295478865,654.8919765638274,18.070284266787347,5.828215102876188,57.35868971139745,15.083430022660785,70.95505088663806,-0.13345022331042186
17.206999999999994,0,0,0,-43.819175,172.655181,12.21,A,3,1,5,11.1,10.0,0.011,-0.279,0.042,-8.1,-26.9,2.9,94005,163.2,28.7,0,4.14,42.4,659.5368329412045,139.21853650775515,41.586785847430505,657.7441725358968,18.050930616034176,5.819126975193366,56.72914917142165,19.05554053176488,70.61702301364696,3.9824143309552076
17.257000000000005,0,0,0,-43.819175,172.655181,12.21,A,3,1,5,11.1,10.0,-0.032,-0.279,-0.082,-5.5,-28.5,3.8,94005,161.5,28.7,0,4.15,39.1,659.5368329412045,140.12004584497228,41.87667093981444,660.5652637582997,18.009442872643188,5.776276720161404,56.114499724664796,22.98462141862415,70.35406218374231,8.055806269158516
17.306999999999988,0,0,0,-43.819175,172.655181,12.21,A,3,1,5,11.1,10.0,-0.043,-0.275,-0.069,-1.2,-29.1,3.7,94005,161.5,29.1,0,4.11,69.8,659.5368329412045,141.0197565235405,42.163735172178406,663.3557226772369,17.978984270097627,5.706292574401243,55.50385703286542,26.994079742800846,69.94087547189174,12.067021259814371
17.357,0,0,0,-43.819175,172.655181,12.21,A,3,1,5,11.1,10.0,-0.041,-0.264,-0.016,3.2,-31.2,3.4,94005,160.7,29.1,0,4.15,41.5,659.5368329412045,141.91803139999075,42.447701147033904,666.1156130819719,17.9520107879045,5.652346419816008,54.89175915651006,30.91491502444849,69.43465382526563,15.76908541525937
17.40700000000001,0,0,0,-43.819175,172.655181,12.21,A,3,1,5,11.1,10.0,-0.058,-0.271,-0.024,6.5,-32.6,2.4,94005,159.5,29.1,0,4.14,44.3,659.5368329412045,142.81505345661802,42.72920631647152,668.8448289381589,17.9288714771774,5.607860357686151,54.27687509094728,34.931637565266584,68.82586103463672,19.327367901415847
17.456999999999994,0,0,0,-43.819175,172.655181,12.21,A,3,1,5,11.1,10.0,-0.056,-0.246,0.026,7.3,-33.1,0.9,93847,159.5,29.0,0,4.14,38.7,674.004421360262,143.71106352466214,43.00870900985463,671.543308764284,17.911531244599857,5.572247377641868,53.66231795409297,38.95361891402794,68.1531206971181,22.709329708628186
17.507000000000005,0,0,0,-43.819175,172.655181,12.21,A,3,1,5,11.1,10.0,0.016,-0.25,0.034,6.2,-32.6,0.9,93847,158.0,28.1,0,4.12,68.9,674.004421360262,144.60587497277007,43.28687601428482,674.2112098213441,17.88092667970946,5.554432799563457,53.05372432828898,42.8899865822234,67.45432174370882,25.954105213533207
17.556999999999988,0,0,0,-43.819175,172.655181,12.21,A,3,1,5,11.1,10.0,-0.026,-0.247,0.025,5.2,-32.7,3.2,93847,155.5,28.1,0,4.15,40.5,674.004421360262,145.49898390744326,43.56415867341029,676.8487357306414,17.843430707230716,5.536873565458953,52.44731204363725,46.54622666596517,66.68683809668288,28.97653714561082
17.607,0,0,0,-43.819175,172.655181,12.21,A,3,1,5,11.1,10.0,0.043,-0.239,0.033,5.0,-30.7,5.5,93847,155.5,28.9,0,4.14,41.5,674.004421360262,146.3900933285574,43.84061347119278,679.456047666992,17.800946137327323,5.521318345838272,51.84516541036755,49.845212162731826,65.74715954215085,31.700446353053156
17.65700000000001,0,0,0,-43.819175,172.655181,12.21,A,3,1,5,11.1,10.0,-0.005,-0.24,0.044,4.5,-29.4,7.7,93847,155.2,28.4,0,4.11,69.8,674.004421360262,147.27899720119922,44.11642849619275,682.0332895312115,17.755208768337283,5.511282654158225,51.24450915838643,52.57189085976366,64.70889132745738,33.89124517281472
17.706999999999994,0,0,0,-43.819175,172.655181,12.21,A,3,1,5,11.1,10.0,-0.026,-0.225,0.064,2.5,-28.7,8.8,93703,153.5,28.4,0,4.14,40.1,687.2072608314168,148.1660687443137,44.39178193478334,684.5804003154324,17.727652956253753,5.502854889469073,50.63992221048265,54.841174723867454,63.578449215443776,35.67334056147671
17.757000000000005,0,0,0,-43.819175,172.655181,12.21,A,3,1,5,11.1,10.0,-0.009,-0.22,0.084,0.0,-27.3,8.7,93703,153.5,28.7,0,4.14,46.6,687.2072608314168,149.05188827599278,44.6669438146443,687.0972977300762,17.705128310901998,5.503620304966726,50.03597437524572,56.81189607905411,62.39594969368283,37.26903345683504
17.806999999999988,0,0,0,-43.819175,172.655181,12.21,A,3,1,5,11.1,10.0,-0.068,-0.219,0.022,-2.4,-28.5,7.6,93703,152.5,28.8,0,4.14,45.2,687.2072608314168,149.93673774160996,44.941810945376155,689.5840649663074,17.688850313796888,5.491064924311287,49.43471507403785,58.52896374301038,61.23694351180278,38.747464597135256
17.857,0,0,0,-43.819175,172.655181,12.21,A,3,1,5,11.1,10.0,0.049,-0.225,-0.011,-1.5,-29.3,9.2,93703,151.5,28.8,0,4.14,45.2,687.2072608314168,150.8202706645252,45.21568883017661,692.0410518933193,17.652466602804406,5.464050467704449,48.844762006414854,60.284846672496464,60.06066080033204,40.362895037978326
17.90700000000001,0,0,0,-43.819175,172.655181,12.21,A,3,1,5,11.1,10.0,-0.057,-0.217,-0.015,1.1,-28.7,10.2,93703,151.5,28.6,0,4.14,46.6,687.2072608314168,151.70183489906756,45.48804456971953,694.4686617364148,17.610102778882005,5.430179114009692,48.25963171738227,61.87094595123816,58.77553208267763,41.76831867917305
17.958,0,0,0,-43.819175,172.655181,12.21,A,3,1,5,11.1,10.0,-0.106,-0.205,0.01,2.7,-29.4,6.2,93564,150.5,28.9,0,4.14,39.1,699.9672610684111,152.59976440373936,45.76379768574787,696.9145097169969,17.602818972961465,5.383668573378765,47.65597536429174,63.26641847452454,57.42998371773328,42.86120359739426
18.02000000000001,0,0,0,-43.818805,172.65541,11.362999,A,3,1,7,9.9,10.0,-0.15,-0.2,-0.003,3.3,-30.7,-1.0,93564,150.2,28.9,0,4.14,39.6,699.9672610684111,153.6916483731303,46.09550130514263,699.8463393249203,17.61924455577217,5.316448181289007,46.91917327838077,65.20116071310542,55.924804583827374,44.267041302981454
18.060000000000002,0,0,0,-43.818805,172.65541,11.362999,A,3,1,7,9.9,10.0,-0.138,-0.195,0.009,4.3,-32.6,-5.3,93564,148.5,28.2,0,4.11,66.6,699.9672610684111,154.39673389790647,46.30721036149513,701.7136164493502,17.635031683042676,5.269004636338071,46.444682943129656,66.7975245375373,55.10616239569579,45.42282216802614
18.10900000000001,0,0,0,-43.818805,172.65541,11.362999,A,3,1,7,9.9,10.0,-0.045,-0.195,0.025,4.3,-33.0,-7.7,93564,148.5,28.9,0,4.15,39.6,699.9672610684111,155.2608916008895,46.56440085430534,703.9752754494265,17.636711295851704,5.228566498771196,45.86792930486845,69.0423690247876,54.15565828353718,47.00834158306324
18.158999999999992,0,0,0,-43.818805,172.65541,11.362999,A,3,1,7,9.9,10.0,0.015,-0.189,0.056,2.3,-30.7,-7.5,93564,148.2,28.9,0,4.11,69.4,699.9672610684111,156.1421562655208,46.825510972721325,706.2540746034022,17.613875289412487,5.215838237871744,45.28403685418992,71.40691195594557,53.21436724384936,48.66362484271311
18.209000000000003,0,0,0,-43.818805,172.65541,11.362999,A,3,1,7,9.9,10.0,-0.005,-0.182,0.098,-1.0,-28.5,-5.3,93439,146.2,28.2,0,4.14,40.1,711.4551966367023,157.02233727022178,47.08645976361829,708.5036020717065,17.593364898618766,5.222113398004702,44.69706187796121,73.54066263989303,52.31518355821535,50.21238989029229
18.258999999999986,0,0,0,-43.818805,172.65541,11.362999,A,3,1,7,9.9,10.0,0.016,-0.186,0.039,-3.7,-25.7,-2.0,93439,146.2,28.7,0,4.15,36.4,711.4551966367023,157.90146925359397,47.34763540510578,710.7238362983055,17.571914436280743,5.224912261498274,44.11230718602999,75.34201749645871,51.39882215569566,51.64403236504169
18.308999999999997,0,0,0,-43.818805,172.65541,11.362999,A,3,1,7,9.9,10.0,0.074,-0.178,0.023,-4.6,-23.2,1.8,93439,146.0,28.7,0,4.14,43.3,711.4551966367023,158.77896134294818,47.60889887027181,712.9151254910705,17.52776913787981,5.225626345140683,43.53926052454852,76.73013620065622,50.46663092154604,52.8716712372668
18.35900000000001,0,0,0,-43.818805,172.65541,11.362999,A,3,1,7,9.9,10.0,0.025,-0.182,-0.015,-3.3,-22.4,6.2,93439,145.5,29.1,0,4.11,47.1,711.4551966367023,159.65405491367832,47.87000112124604,715.0779339254746,17.475973691317424,5.218463693826319,42.97307685159168,77.70989514820987,49.50489083539411,53.816925354668925
18.408999999999992,0,0,0,-43.818805,172.65541,11.362999,A,3,1,7,9.9,10.0,0.05,-0.181,-0.001,-0.2,-22.3,9.9,93439,145.5,28.9,0,4.15,39.1,711.4551966367023,160.52659536622977,48.13055916725381,717.2124555443653,17.425644410751843,5.2038581464878515,42.407787904067455,78.34238220147283,48.43819598854578,54.42392390574272
18.459000000000003,0,0,0,-43.818805,172.65541,11.362999,A,3,1,7,9.9,10.0,0.015,-0.18,-0.025,3.4,-23.4,10.9,93311,145.0,28.9,0,4.14,37.3,723.2317456424497,161.39662647400698,48.39032456269748,719.3187435505685,17.375599900328233,5.186757671256577,41.84373234404083,78.72021879323026,47.26520166714153,54.67890897340919
18.508999999999986,0,0,0,-43.818805,172.65541,11.362999,A,3,1,7,9.9,10.0,-0.071,-0.171,-0.064,6.7,-23.3,9.4,93311,144.2,29.1,0,4.11,72.2,723.2317456424497,162.2644865374274,48.648499602304895,721.3969649456876,17.338802636499423,5.140243913043598,41.28512346075497,79.0718095783448,46.01776647100541,54.7293944727652
18.558999999999997,0,0,0,-43.818805,172.65541,11.362999,A,3,1,7,9.9,10.0,-0.051,-0.165,-0.014,9.6,-26.8,6.7,93311,144.2,28.9,0,4.12,64.7,723.2317456424497,163.13084762573234,48.90414796112292,723.4472623057151,17.315640895691338,5.085690439675261,40.726770940322446,79.49901709379563,44.81778502501699,54.663527020214815
